SensoriaRawDataFormat: 4.0
FirmwareRevision: 1.1.5.238R
DeviceName: Sensoria-C1-08C8
SerialNumber: C510F3DE76F7D46D
Location: 0x0000
Start: 2024-09-01T17:33:12+02:00
SamplingFrequency: 50
AfeName: N/A
AfeUnits: N/A
(null)
(null)
(null)
(null)
(null)
(null)
(null)
(null)

Tag,AutoTag,Tick,T,S0,S1,S2,Ax,Ay,Az,Gx,Gy,Gz,Mx,My,Mz,HRM,S3,S4,S5,S6,S7,CS0,CS1,CS2,CS3,CS4,CS5,CS6,CS7,RSSI,Timestamp,Zero
,,1652,0,392,434,446,-0.089844,0.972656,0.046875,-1.120000,-5.600000,-4.480000,0.168192,-0.177536,0.084096,,0,0,0,0,0,,,,,,,,,-77,17:33:12.429,
,,1653,20,392,435,449,-0.089844,0.972656,0.046875,-1.120000,-5.600000,-4.480000,0.168192,-0.177536,0.084096,,0,0,0,0,0,,,,,,,,,-77,17:33:12.430,
,,1654,40,393,434,447,-0.082031,0.976562,0.003906,1.120000,-3.360000,-4.480000,0.168192,-0.177536,0.084096,,0,0,0,0,0,,,,,,,,,-77,17:33:12.515,
,,1655,60,393,435,447,-0.082031,0.976562,0.003906,1.120000,-3.360000,-4.480000,0.168192,-0.177536,0.084096,,0,0,0,0,0,,,,,,,,,-77,17:33:12.516,
,,1656,80,391,436,448,-0.082031,0.976562,0.003906,1.120000,-3.360000,-4.480000,0.168192,-0.177536,0.084096,,0,0,0,0,0,,,,,,,,,-77,17:33:12.517,
,,1657,100,392,435,448,-0.082031,0.976562,0.003906,1.120000,-3.360000,-4.480000,0.168192,-0.177536,0.084096,,0,0,0,0,0,,,,,,,,,-77,17:33:12.517,
,,1658,120,392,434,448,-0.082031,0.976562,0.015625,1.120000,-3.360000,-4.480000,0.168192,-0.177536,0.084096,,0,0,0,0,0,,,,,,,,,-77,17:33:12.545,
,,1659,140,390,434,447,-0.082031,0.976562,0.015625,1.120000,-3.360000,-4.480000,0.168192,-0.177536,0.084096,,0,0,0,0,0,,,,,,,,,-77,17:33:12.546,
,,1660,160,393,434,447,-0.082031,0.976562,0.015625,1.120000,-3.360000,-4.480000,0.168192,-0.177536,0.084096,,0,0,0,0,0,,,,,,,,,-77,17:33:12.575,
,,1661,180,393,434,447,-0.074219,0.976562,0.011719,1.120000,-4.480000,-4.480000,0.168192,-0.177536,0.084096,,0,0,0,0,0,,,,,,,,,-77,17:33:12.605,
,,1662,200,392,435,447,-0.074219,0.976562,0.011719,1.120000,-4.480000,-4.480000,0.168192,-0.177536,0.084096,,0,0,0,0,0,,,,,,,,,-77,17:33:12.606,
,,1663,220,392,433,447,-0.074219,0.976562,0.011719,1.120000,-4.480000,-4.480000,0.168192,-0.177536,0.084096,,0,0,0,0,0,,,,,,,,,-77,17:33:12.635,
,,1664,240,391,433,448,-0.074219,0.976562,0.011719,1.120000,-4.480000,-4.480000,0.168192,-0.177536,0.084096,,0,0,0,0,0,,,,,,,,,-77,17:33:12.665,
,,1665,260,392,435,447,-0.101562,0.976562,0.003906,0.000000,-4.480000,-4.480000,0.168192,-0.177536,0.084096,,0,0,0,0,0,,,,,,,,,-77,17:33:12.666,
,,1666,280,391,434,447,-0.101562,0.976562,0.003906,0.000000,-4.480000,-4.480000,0.168192,-0.177536,0.084096,,0,0,0,0,0,,,,,,,,,-77,17:33:12.695,
,,1667,300,392,434,447,-0.101562,0.976562,0.003906,0.000000,-4.480000,-4.480000,0.168192,-0.177536,0.084096,,0,0,0,0,0,,,,,,,,,-77,17:33:12.725,
,,1668,320,391,433,448,-0.101562,0.976562,0.003906,0.000000,-4.480000,-4.480000,0.168192,-0.177536,0.084096,,0,0,0,0,0,,,,,,,,,-77,17:33:12.726,
,,1669,340,392,435,448,-0.062500,0.976562,0.027344,-1.120000,-4.480000,-4.480000,0.168192,-0.177536,0.084096,,0,0,0,0,0,,,,,,,,,-77,17:33:12.755,
,,1670,360,391,433,448,-0.062500,0.976562,0.027344,-1.120000,-4.480000,-4.480000,0.168192,-0.177536,0.084096,,0,0,0,0,0,,,,,,,,,-77,17:33:12.785,
,,1671,380,391,434,446,-0.062500,0.976562,0.027344,-1.120000,-4.480000,-4.480000,0.168192,-0.177536,0.084096,,0,0,0,0,0,,,,,,,,,-77,17:33:12.786,
,,1672,400,391,434,447,-0.062500,0.976562,0.027344,-1.120000,-4.480000,-4.480000,0.168192,-0.177536,0.084096,,0,0,0,0,0,,,,,,,,,-77,17:33:12.815,
,,1673,420,392,434,447,-0.093750,0.976562,0.007812,-1.120000,-4.480000,-4.480000,0.168192,-0.177536,0.084096,,0,0,0,0,0,,,,,,,,,-77,17:33:12.845,
,,1674,440,390,434,448,-0.093750,0.976562,0.007812,-1.120000,-4.480000,-4.480000,0.168192,-0.177536,0.084096,,0,0,0,0,0,,,,,,,,,-77,17:33:12.846,
,,1675,460,389,432,448,-0.093750,0.976562,0.007812,-1.120000,-4.480000,-4.480000,0.168192,-0.177536,0.084096,,0,0,0,0,0,,,,,,,,,-77,17:33:12.875,
,,1676,480,390,433,448,-0.109375,0.972656,0.035156,-2.240000,-4.480000,-3.360000,0.168192,-0.177536,0.084096,,0,0,0,0,0,,,,,,,,,-77,17:33:12.905,
,,1677,500,391,435,448,-0.109375,0.972656,0.035156,-2.240000,-4.480000,-3.360000,0.168192,-0.177536,0.084096,,0,0,0,0,0,,,,,,,,,-77,17:33:12.906,
,,1678,520,390,433,448,-0.109375,0.972656,0.035156,-2.240000,-4.480000,-3.360000,0.168192,-0.177536,0.084096,,0,0,0,0,0,,,,,,,,,-77,17:33:12.935,
,,1679,540,392,433,446,-0.109375,0.972656,0.035156,-2.240000,-4.480000,-3.360000,0.168192,-0.177536,0.084096,,0,0,0,0,0,,,,,,,,,-77,17:33:12.965,
,,1680,560,393,433,448,-0.058594,0.976562,0.035156,-1.120000,-4.480000,-3.360000,0.158848,-0.177536,0.084096,,0,0,0,0,0,,,,,,,,,-77,17:33:12.966,
,,1681,580,390,433,447,-0.058594,0.976562,0.035156,-1.120000,-4.480000,-3.360000,0.158848,-0.177536,0.084096,,0,0,0,0,0,,,,,,,,,-77,17:33:12.995,
,,1682,600,391,434,449,-0.058594,0.976562,0.035156,-1.120000,-4.480000,-3.360000,0.158848,-0.177536,0.084096,,0,0,0,0,0,,,,,,,,,-77,17:33:13.025,
,,1683,620,390,434,449,-0.058594,0.976562,0.035156,-1.120000,-4.480000,-3.360000,0.158848,-0.177536,0.084096,,0,0,0,0,0,,,,,,,,,-77,17:33:13.026,
,,1684,640,391,434,449,-0.070312,0.976562,0.023438,0.000000,-3.360000,-4.480000,0.158848,-0.177536,0.084096,,0,0,0,0,0,,,,,,,,,-77,17:33:13.055,
,,1685,660,392,433,450,-0.070312,0.976562,0.023438,0.000000,-3.360000,-4.480000,0.158848,-0.177536,0.084096,,0,0,0,0,0,,,,,,,,,-77,17:33:13.085,
,,1686,680,392,433,450,-0.101562,0.976562,0.019531,1.120000,-3.360000,-4.480000,0.158848,-0.177536,0.084096,,0,0,0,0,0,,,,,,,,,-77,17:33:13.136,
,,1687,700,391,433,449,-0.101562,0.976562,0.019531,1.120000,-3.360000,-4.480000,0.158848,-0.177536,0.084096,,0,0,0,0,0,,,,,,,,,-77,17:33:13.146,
,,1688,720,392,433,451,-0.101562,0.976562,0.019531,1.120000,-3.360000,-4.480000,0.158848,-0.177536,0.084096,,0,0,0,0,0,,,,,,,,,-77,17:33:13.147,
,,1689,740,392,434,449,-0.101562,0.976562,0.019531,1.120000,-3.360000,-4.480000,0.158848,-0.177536,0.084096,,0,0,0,0,0,,,,,,,,,-77,17:33:13.173,
,,1690,760,390,435,451,-0.078125,0.976562,0.015625,-1.120000,-4.480000,-3.360000,0.158848,-0.177536,0.084096,,0,0,0,0,0,,,,,,,,,-77,17:33:13.205,
,,1691,780,392,435,452,-0.078125,0.976562,0.015625,-1.120000,-4.480000,-3.360000,0.158848,-0.177536,0.084096,,0,0,0,0,0,,,,,,,,,-77,17:33:13.206,
,,1692,800,391,434,451,-0.078125,0.976562,0.015625,-1.120000,-4.480000,-3.360000,0.158848,-0.177536,0.084096,,0,0,0,0,0,,,,,,,,,-77,17:33:13.234,
,,1693,820,391,434,451,-0.078125,0.976562,0.015625,-1.120000,-4.480000,-3.360000,0.158848,-0.177536,0.084096,,0,0,0,0,0,,,,,,,,,-77,17:33:13.266,
,,1694,840,390,433,452,-0.085938,0.972656,0.050781,-1.120000,-4.480000,-3.360000,0.158848,-0.177536,0.084096,,0,0,0,0,0,,,,,,,,,-77,17:33:13.266,
,,1695,860,393,433,452,-0.085938,0.972656,0.050781,-1.120000,-4.480000,-3.360000,0.158848,-0.177536,0.084096,,0,0,0,0,0,,,,,,,,,-77,17:33:13.296,
,,1696,880,391,434,453,-0.085938,0.972656,0.050781,-1.120000,-4.480000,-3.360000,0.158848,-0.177536,0.084096,,0,0,0,0,0,,,,,,,,,-77,17:33:13.325,
,,1697,900,392,434,451,-0.085938,0.972656,0.050781,-1.120000,-4.480000,-3.360000,0.158848,-0.177536,0.084096,,0,0,0,0,0,,,,,,,,,-77,17:33:13.326,
,,1698,920,391,433,451,-0.074219,0.976562,0.019531,-1.120000,-3.360000,-3.360000,0.158848,-0.177536,0.084096,,0,0,0,0,0,,,,,,,,,-77,17:33:13.355,
,,1699,940,391,434,452,-0.074219,0.976562,0.019531,-1.120000,-3.360000,-3.360000,0.158848,-0.177536,0.084096,,0,0,0,0,0,,,,,,,,,-77,17:33:13.385,
,,1700,960,391,433,451,-0.074219,0.976562,0.019531,-1.120000,-3.360000,-3.360000,0.158848,-0.177536,0.084096,,0,0,0,0,0,,,,,,,,,-77,17:33:13.386,
,,1701,980,391,434,452,-0.074219,0.976562,0.019531,-1.120000,-3.360000,-3.360000,0.158848,-0.177536,0.084096,,0,0,0,0,0,,,,,,,,,-77,17:33:13.415,
,,1702,1000,390,433,451,-0.085938,0.976562,0.031250,-1.120000,-4.480000,-4.480000,0.158848,-0.177536,0.084096,,0,0,0,0,0,,,,,,,,,-77,17:33:13.445,
,,1703,1020,391,433,452,-0.085938,0.976562,0.031250,-1.120000,-4.480000,-4.480000,0.158848,-0.177536,0.084096,,0,0,0,0,0,,,,,,,,,-77,17:33:13.446,
,,1704,1040,391,434,450,-0.085938,0.976562,0.031250,-1.120000,-4.480000,-4.480000,0.158848,-0.177536,0.084096,,0,0,0,0,0,,,,,,,,,-77,17:33:13.475,
,,1705,1060,392,433,452,-0.082031,0.972656,0.046875,-1.120000,-4.480000,-4.480000,0.158848,-0.177536,0.084096,,0,0,0,0,0,,,,,,,,,-77,17:33:13.506,
,,1706,1080,390,433,452,-0.082031,0.972656,0.046875,-1.120000,-4.480000,-4.480000,0.158848,-0.177536,0.084096,,0,0,0,0,0,,,,,,,,,-77,17:33:13.506,
,,1707,1100,392,435,451,-0.082031,0.972656,0.046875,-1.120000,-4.480000,-4.480000,0.158848,-0.177536,0.084096,,0,0,0,0,0,,,,,,,,,-77,17:33:13.535,
,,1708,1120,390,433,452,-0.082031,0.972656,0.046875,-1.120000,-4.480000,-4.480000,0.158848,-0.177536,0.084096,,0,0,0,0,0,,,,,,,,,-77,17:33:13.565,
,,1709,1140,391,435,452,-0.082031,0.980469,0.011719,0.000000,-3.360000,-4.480000,0.158848,-0.177536,0.084096,,0,0,0,0,0,,,,,,,,,-77,17:33:13.566,
,,1710,1160,390,433,451,-0.082031,0.980469,0.011719,0.000000,-3.360000,-4.480000,0.158848,-0.177536,0.084096,,0,0,0,0,0,,,,,,,,,-77,17:33:13.595,
,,1711,1180,392,433,451,-0.082031,0.980469,0.011719,0.000000,-3.360000,-4.480000,0.158848,-0.177536,0.084096,,0,0,0,0,0,,,,,,,,,-77,17:33:13.625,
,,1712,1200,390,434,450,-0.082031,0.980469,0.011719,0.000000,-3.360000,-4.480000,0.158848,-0.177536,0.084096,,0,0,0,0,0,,,,,,,,,-77,17:33:13.626,
,,1713,1220,390,434,452,-0.085938,0.976562,0.031250,-2.240000,-4.480000,-3.360000,0.158848,-0.177536,0.084096,,0,0,0,0,0,,,,,,,,,-77,17:33:13.655,
,,1714,1240,391,432,452,-0.085938,0.976562,0.031250,-2.240000,-4.480000,-3.360000,0.158848,-0.177536,0.084096,,0,0,0,0,0,,,,,,,,,-77,17:33:13.685,
,,1715,1260,392,433,450,-0.085938,0.976562,0.031250,-2.240000,-4.480000,-3.360000,0.158848,-0.177536,0.084096,,0,0,0,0,0,,,,,,,,,-77,17:33:13.686,
,,1716,1280,391,434,451,-0.082031,0.976562,0.042969,-4.480000,-4.480000,-3.360000,0.158848,-0.177536,0.084096,,0,0,0,0,0,,,,,,,,,-77,17:33:13.715,
,,1717,1300,391,435,452,-0.082031,0.976562,0.042969,-4.480000,-4.480000,-3.360000,0.158848,-0.177536,0.084096,,0,0,0,0,0,,,,,,,,,-77,17:33:13.745,
,,1718,1320,391,435,451,-0.082031,0.976562,0.042969,-4.480000,-4.480000,-3.360000,0.158848,-0.177536,0.084096,,0,0,0,0,0,,,,,,,,,-77,17:33:13.746,
,,1719,1340,391,434,450,-0.082031,0.976562,0.042969,-4.480000,-4.480000,-3.360000,0.158848,-0.177536,0.084096,,0,0,0,0,0,,,,,,,,,-77,17:33:13.775,
,,1720,1360,392,435,451,-0.097656,0.972656,0.062500,-4.480000,-5.600000,-2.240000,0.158848,-0.177536,0.084096,,0,0,0,0,0,,,,,,,,,-77,17:33:13.805,
,,1721,1380,391,435,452,-0.097656,0.972656,0.062500,-4.480000,-5.600000,-2.240000,0.158848,-0.177536,0.084096,,0,0,0,0,0,,,,,,,,,-77,17:33:13.806,
,,1722,1400,392,435,451,-0.097656,0.972656,0.062500,-4.480000,-5.600000,-2.240000,0.158848,-0.177536,0.084096,,0,0,0,0,0,,,,,,,,,-77,17:33:13.835,
,,1723,1420,393,437,451,-0.097656,0.972656,0.062500,-4.480000,-5.600000,-2.240000,0.158848,-0.177536,0.084096,,0,0,0,0,0,,,,,,,,,-77,17:33:13.865,
,,1724,1440,392,440,452,-0.085938,0.968750,0.089844,-5.600000,-4.480000,-2.240000,0.158848,-0.177536,0.084096,,0,0,0,0,0,,,,,,,,,-77,17:33:13.866,
,,1725,1460,394,442,451,-0.085938,0.968750,0.089844,-5.600000,-4.480000,-2.240000,0.158848,-0.177536,0.084096,,0,0,0,0,0,,,,,,,,,-77,17:33:13.895,
,,1726,1480,395,442,450,-0.085938,0.968750,0.089844,-5.600000,-4.480000,-2.240000,0.158848,-0.177536,0.084096,,0,0,0,0,0,,,,,,,,,-77,17:33:13.925,
,,1727,1500,393,443,452,-0.085938,0.968750,0.089844,-5.600000,-4.480000,-2.240000,0.158848,-0.177536,0.084096,,0,0,0,0,0,,,,,,,,,-77,17:33:13.926,
,,1728,1520,394,446,450,-0.062500,0.980469,0.027344,-3.360000,-2.240000,-2.240000,0.158848,-0.177536,0.084096,,0,0,0,0,0,,,,,,,,,-77,17:33:13.955,
,,1729,1540,393,445,450,-0.062500,0.980469,0.027344,-3.360000,-2.240000,-2.240000,0.158848,-0.177536,0.084096,,0,0,0,0,0,,,,,,,,,-77,17:33:13.985,
,,1730,1560,394,444,452,-0.062500,0.980469,0.027344,-3.360000,-2.240000,-2.240000,0.158848,-0.177536,0.084096,,0,0,0,0,0,,,,,,,,,-77,17:33:13.986,
,,1731,1580,395,445,451,-0.062500,0.980469,0.027344,-3.360000,-2.240000,-2.240000,0.158848,-0.177536,0.084096,,0,0,0,0,0,,,,,,,,,-77,17:33:14.015,
,,1732,1600,395,446,453,-0.066406,0.980469,0.050781,-3.360000,-3.360000,-3.360000,0.158848,-0.177536,0.084096,,0,0,0,0,0,,,,,,,,,-77,17:33:14.046,
,,1733,1620,395,446,452,-0.066406,0.980469,0.050781,-3.360000,-3.360000,-3.360000,0.158848,-0.177536,0.084096,,0,0,0,0,0,,,,,,,,,-77,17:33:14.046,
,,1734,1640,395,445,454,-0.054688,0.976562,0.058594,-5.600000,-5.600000,-3.360000,0.158848,-0.177536,0.084096,,0,0,0,0,0,,,,,,,,,-77,17:33:14.105,
,,1735,1660,396,446,454,-0.054688,0.976562,0.058594,-5.600000,-5.600000,-3.360000,0.158848,-0.177536,0.084096,,0,0,0,0,0,,,,,,,,,-77,17:33:14.106,
,,1736,1680,397,447,455,-0.054688,0.976562,0.058594,-5.600000,-5.600000,-3.360000,0.158848,-0.177536,0.084096,,0,0,0,0,0,,,,,,,,,-77,17:33:14.135,
,,1737,1700,398,449,457,-0.054688,0.976562,0.058594,-5.600000,-5.600000,-3.360000,0.158848,-0.177536,0.084096,,0,0,0,0,0,,,,,,,,,-77,17:33:14.166,
,,1738,1720,399,452,459,-0.046875,0.976562,0.089844,-6.720000,-5.600000,-2.240000,0.158848,-0.177536,0.084096,,0,0,0,0,0,,,,,,,,,-77,17:33:14.166,
,,1739,1740,401,456,463,-0.046875,0.976562,0.089844,-6.720000,-5.600000,-2.240000,0.158848,-0.177536,0.084096,,0,0,0,0,0,,,,,,,,,-77,17:33:14.195,
,,1740,1760,401,460,469,-0.046875,0.976562,0.089844,-6.720000,-5.600000,-2.240000,0.158848,-0.177536,0.084096,,0,0,0,0,0,,,,,,,,,-77,17:33:14.225,
,,1741,1780,402,461,482,-0.046875,0.976562,0.089844,-6.720000,-5.600000,-2.240000,0.158848,-0.177536,0.084096,,0,0,0,0,0,,,,,,,,,-77,17:33:14.226,
,,1742,1800,402,467,495,-0.058594,1.019531,0.132812,-8.960000,-5.600000,-3.360000,0.158848,-0.177536,0.084096,,0,0,0,0,0,,,,,,,,,-77,17:33:14.255,
,,1743,1820,403,476,505,-0.058594,1.019531,0.132812,-8.960000,-5.600000,-3.360000,0.158848,-0.177536,0.084096,,0,0,0,0,0,,,,,,,,,-77,17:33:14.285,
,,1744,1840,405,490,512,-0.058594,1.019531,0.132812,-8.960000,-5.600000,-3.360000,0.158848,-0.177536,0.084096,,0,0,0,0,0,,,,,,,,,-77,17:33:14.286,
,,1745,1860,407,500,515,-0.222656,1.570312,0.132812,-22.400000,-3.360000,-20.160000,0.158848,-0.177536,0.084096,,0,0,0,0,0,,,,,,,,,-77,17:33:14.315,
,,1746,1880,410,509,517,-0.222656,1.570312,0.132812,-22.400000,-3.360000,-20.160000,0.158848,-0.177536,0.084096,,0,0,0,0,0,,,,,,,,,-77,17:33:14.346,
,,1747,1900,413,512,517,-0.222656,1.570312,0.132812,-22.400000,-3.360000,-20.160000,0.158848,-0.177536,0.084096,,0,0,0,0,0,,,,,,,,,-77,17:33:14.346,
,,1748,1920,416,519,517,-0.222656,1.570312,0.132812,-22.400000,-3.360000,-20.160000,0.158848,-0.177536,0.084096,,0,0,0,0,0,,,,,,,,,-77,17:33:14.375,
,,1749,1940,417,521,518,-0.027344,1.664062,0.175781,-24.639999,-3.360000,-66.080002,0.158848,-0.177536,0.084096,,0,0,0,0,0,,,,,,,,,-77,17:33:14.405,
,,1750,1960,418,524,518,-0.027344,1.664062,0.175781,-24.639999,-3.360000,-66.080002,0.158848,-0.177536,0.084096,,0,0,0,0,0,,,,,,,,,-77,17:33:14.406,
,,1751,1980,420,525,516,-0.027344,1.664062,0.175781,-24.639999,-3.360000,-66.080002,0.158848,-0.177536,0.084096,,0,0,0,0,0,,,,,,,,,-77,17:33:14.435,
,,1752,2000,421,527,516,-0.027344,1.664062,0.175781,-24.639999,-3.360000,-66.080002,0.158848,-0.177536,0.084096,,0,0,0,0,0,,,,,,,,,-77,17:33:14.465,
,,1753,2020,422,528,514,-0.066406,1.378906,0.250000,-4.480000,-6.720000,-113.120003,0.158848,-0.177536,0.084096,,0,0,0,0,0,,,,,,,,,-77,17:33:14.466,
,,1754,2040,423,528,513,-0.066406,1.378906,0.250000,-4.480000,-6.720000,-113.120003,0.158848,-0.177536,0.084096,,0,0,0,0,0,,,,,,,,,-77,17:33:14.495,
,,1755,2060,422,527,515,-0.066406,1.378906,0.250000,-4.480000,-6.720000,-113.120003,0.158848,-0.177536,0.084096,,0,0,0,0,0,,,,,,,,,-77,17:33:14.526,
,,1756,2080,422,526,516,-0.066406,1.378906,0.250000,-4.480000,-6.720000,-113.120003,0.158848,-0.177536,0.084096,,0,0,0,0,0,,,,,,,,,-77,17:33:14.526,
,,1757,2100,423,527,514,-0.304688,0.742188,0.246094,15.680000,14.560000,-117.599998,0.158848,-0.177536,0.084096,,0,0,0,0,0,,,,,,,,,-77,17:33:14.555,
,,1758,2120,422,526,515,-0.304688,0.742188,0.246094,15.680000,14.560000,-117.599998,-0.018688,-0.158848,0.065408,,0,0,0,0,0,,,,,,,,,-77,17:33:14.585,
,,1759,2140,422,526,515,-0.304688,0.742188,0.246094,15.680000,14.560000,-117.599998,-0.018688,-0.158848,0.065408,,0,0,0,0,0,,,,,,,,,-77,17:33:14.586,
,,1760,2160,422,527,515,-0.304688,0.742188,0.246094,15.680000,14.560000,-117.599998,-0.018688,-0.158848,0.065408,,0,0,0,0,0,,,,,,,,,-77,17:33:14.615,
,,1761,2180,422,527,514,-0.304688,0.343750,0.167969,19.040001,26.880001,-61.599998,-0.018688,-0.158848,0.065408,,0,0,0,0,0,,,,,,,,,-77,17:33:14.645,
,,1762,2200,421,526,515,-0.304688,0.343750,0.167969,19.040001,26.880001,-61.599998,-0.018688,-0.158848,0.065408,,0,0,0,0,0,,,,,,,,,-77,17:33:14.646,
,,1763,2220,424,528,516,-0.304688,0.343750,0.167969,19.040001,26.880001,-61.599998,-0.018688,-0.158848,0.065408,,0,0,0,0,0,,,,,,,,,-77,17:33:14.675,
,,1764,2240,422,530,514,-0.335938,0.015625,0.015625,3.360000,16.799999,-5.600000,-0.018688,-0.158848,0.065408,,0,0,0,0,0,,,,,,,,,-77,17:33:14.705,
,,1765,2260,422,530,513,-0.335938,0.015625,0.015625,3.360000,16.799999,-5.600000,-0.018688,-0.158848,0.065408,,0,0,0,0,0,,,,,,,,,-77,17:33:14.706,
,,1766,2280,423,532,513,-0.335938,0.015625,0.015625,3.360000,16.799999,-5.600000,-0.018688,-0.158848,0.065408,,0,0,0,0,0,,,,,,,,,-77,17:33:14.735,
,,1767,2300,423,533,514,-0.335938,0.015625,0.015625,3.360000,16.799999,-5.600000,-0.018688,-0.158848,0.065408,,0,0,0,0,0,,,,,,,,,-77,17:33:14.765,
,,1768,2320,423,534,513,-0.250000,-0.343750,-0.066406,-14.560000,-35.840000,29.120001,-0.018688,-0.158848,0.065408,,0,0,0,0,0,,,,,,,,,-77,17:33:14.766,
,,1769,2340,424,535,512,-0.250000,-0.343750,-0.066406,-14.560000,-35.840000,29.120001,-0.018688,-0.158848,0.065408,,0,0,0,0,0,,,,,,,,,-77,17:33:14.795,
,,1770,2360,425,534,512,-0.250000,-0.343750,-0.066406,-14.560000,-35.840000,29.120001,-0.018688,-0.158848,0.065408,,0,0,0,0,0,,,,,,,,,-77,17:33:14.825,
,,1771,2380,424,536,512,-0.273438,-0.187500,0.046875,-20.160000,-45.920002,51.520000,-0.018688,-0.158848,0.065408,,0,0,0,0,0,,,,,,,,,-77,17:33:14.826,
,,1772,2400,424,537,511,-0.273438,-0.187500,0.046875,-20.160000,-45.920002,51.520000,-0.018688,-0.158848,0.065408,,0,0,0,0,0,,,,,,,,,-77,17:33:14.855,
,,1773,2420,424,537,511,-0.273438,-0.187500,0.046875,-20.160000,-45.920002,51.520000,-0.018688,-0.158848,0.065408,,0,0,0,0,0,,,,,,,,,-77,17:33:14.885,
,,1774,2440,425,539,512,-0.273438,-0.187500,0.046875,-20.160000,-45.920002,51.520000,-0.018688,-0.158848,0.065408,,0,0,0,0,0,,,,,,,,,-77,17:33:14.886,
,,1775,2460,425,540,512,-0.367188,0.597656,-0.035156,-3.360000,22.400000,94.080002,-0.018688,-0.158848,0.065408,,0,0,0,0,0,,,,,,,,,-77,17:33:14.915,
,,1776,2480,426,541,512,-0.367188,0.597656,-0.035156,-3.360000,22.400000,94.080002,-0.018688,-0.158848,0.065408,,0,0,0,0,0,,,,,,,,,-77,17:33:14.945,
,,1777,2500,425,542,513,-0.367188,0.597656,-0.035156,-3.360000,22.400000,94.080002,-0.018688,-0.158848,0.065408,,0,0,0,0,0,,,,,,,,,-77,17:33:14.946,
,,1778,2520,425,542,512,-0.367188,0.597656,-0.035156,-3.360000,22.400000,94.080002,-0.018688,-0.158848,0.065408,,0,0,0,0,0,,,,,,,,,-77,17:33:14.975,
,,1779,2540,425,543,482,0.031250,1.613281,-0.199219,16.799999,2.240000,146.720001,-0.018688,-0.158848,0.065408,,0,0,0,0,0,,,,,,,,,-77,17:33:15.005,
,,1780,2560,426,538,434,0.031250,1.613281,-0.199219,16.799999,2.240000,146.720001,-0.018688,-0.158848,0.065408,,0,0,0,0,0,,,,,,,,,-77,17:33:15.006,
,,1781,2580,426,532,442,0.031250,1.613281,-0.199219,16.799999,2.240000,146.720001,-0.018688,-0.158848,0.065408,,0,0,0,0,0,,,,,,,,,-77,17:33:15.035,
,,1782,2600,425,527,463,0.031250,1.613281,-0.199219,16.799999,2.240000,146.720001,-0.018688,-0.158848,0.065408,,0,0,0,0,0,,,,,,,,,-77,17:33:15.065,
,,1783,2620,422,514,474,0.597656,0.402344,0.554688,5.600000,-77.279999,6.720000,-0.018688,-0.158848,0.065408,,0,0,0,0,0,,,,,,,,,-77,17:33:15.095,
,,1784,2640,420,512,472,0.597656,0.402344,0.554688,5.600000,-77.279999,6.720000,-0.018688,-0.158848,0.065408,,0,0,0,0,0,,,,,,,,,-77,17:33:15.125,
,,1785,2660,418,509,470,0.343750,1.140625,0.019531,6.720000,-10.080000,-26.880001,-0.018688,-0.158848,0.065408,,0,0,0,0,0,,,,,,,,,-77,17:33:15.126,
,,1786,2680,416,506,469,0.343750,1.140625,0.019531,6.720000,-10.080000,-26.880001,-0.018688,-0.158848,0.065408,,0,0,0,0,0,,,,,,,,,-77,17:33:15.155,
,,1787,2700,411,501,473,0.343750,1.140625,0.019531,6.720000,-10.080000,-26.880001,-0.018688,-0.158848,0.065408,,0,0,0,0,0,,,,,,,,,-77,17:33:15.185,
,,1788,2720,409,497,473,0.343750,1.140625,0.019531,6.720000,-10.080000,-26.880001,-0.018688,-0.158848,0.065408,,0,0,0,0,0,,,,,,,,,-77,17:33:15.186,
,,1789,2740,405,491,474,0.175781,1.007812,-0.074219,13.440001,5.600000,-8.960000,-0.018688,-0.158848,0.065408,,0,0,0,0,0,,,,,,,,,-77,17:33:15.215,
,,1790,2760,403,484,474,0.175781,1.007812,-0.074219,13.440001,5.600000,-8.960000,-0.018688,-0.158848,0.065408,,0,0,0,0,0,,,,,,,,,-77,17:33:15.245,
,,1791,2780,401,476,474,0.175781,1.007812,-0.074219,13.440001,5.600000,-8.960000,-0.018688,-0.158848,0.065408,,0,0,0,0,0,,,,,,,,,-77,17:33:15.246,
,,1792,2800,400,470,473,0.175781,1.007812,-0.074219,13.440001,5.600000,-8.960000,-0.018688,-0.158848,0.065408,,0,0,0,0,0,,,,,,,,,-77,17:33:15.275,
,,1793,2820,398,467,474,0.035156,0.980469,0.050781,7.840000,-7.840000,-1.120000,-0.018688,-0.158848,0.065408,,0,0,0,0,0,,,,,,,,,-77,17:33:15.305,
,,1794,2840,398,464,473,0.035156,0.980469,0.050781,7.840000,-7.840000,-1.120000,-0.018688,-0.158848,0.065408,,0,0,0,0,0,,,,,,,,,-77,17:33:15.306,
,,1795,2860,399,462,472,0.035156,0.980469,0.050781,7.840000,-7.840000,-1.120000,-0.018688,-0.158848,0.065408,,0,0,0,0,0,,,,,,,,,-77,17:33:15.335,
,,1796,2880,398,461,472,0.035156,0.980469,0.050781,7.840000,-7.840000,-1.120000,-0.018688,-0.158848,0.065408,,0,0,0,0,0,,,,,,,,,-77,17:33:15.365,
,,1797,2900,400,462,472,-0.203125,0.960938,0.152344,6.720000,-5.600000,2.240000,-0.018688,-0.158848,0.065408,,0,0,0,0,0,,,,,,,,,-77,17:33:15.366,
,,1798,2920,400,463,470,-0.203125,0.960938,0.152344,6.720000,-5.600000,2.240000,-0.018688,-0.158848,0.065408,,0,0,0,0,0,,,,,,,,,-77,17:33:15.395,
,,1799,2940,398,466,473,-0.203125,0.960938,0.152344,6.720000,-5.600000,2.240000,-0.018688,-0.158848,0.065408,,0,0,0,0,0,,,,,,,,,-77,17:33:15.425,
,,1800,2960,401,468,471,-0.203125,0.960938,0.054688,3.360000,0.000000,-3.360000,-0.018688,-0.158848,0.065408,,0,0,0,0,0,,,,,,,,,-77,17:33:15.426,
,,1801,2980,400,469,472,-0.093750,0.980469,0.054688,3.360000,0.000000,-3.360000,-0.018688,-0.158848,0.065408,,0,0,0,0,0,,,,,,,,,-77,17:33:15.455,
,,1802,3000,400,471,472,-0.093750,0.980469,0.054688,3.360000,0.000000,-3.360000,-0.018688,-0.158848,0.065408,,0,0,0,0,0,,,,,,,,,-77,17:33:15.485,
,,1803,3020,401,475,475,-0.093750,0.980469,0.054688,3.360000,0.000000,-3.360000,-0.018688,-0.158848,0.065408,,0,0,0,0,0,,,,,,,,,-77,17:33:15.486,
,,1804,3040,403,476,474,0.039062,0.976562,0.062500,0.000000,-3.360000,-4.480000,-0.018688,-0.158848,0.065408,,0,0,0,0,0,,,,,,,,,-77,17:33:15.515,
,,1805,3060,403,478,473,0.039062,0.976562,0.062500,0.000000,-3.360000,-4.480000,-0.018688,-0.158848,0.065408,,0,0,0,0,0,,,,,,,,,-77,17:33:15.545,
,,1806,3080,402,479,474,0.039062,0.976562,0.062500,0.000000,-3.360000,-4.480000,-0.018688,-0.158848,0.065408,,0,0,0,0,0,,,,,,,,,-77,17:33:15.546,
,,1807,3100,404,481,473,0.039062,0.976562,0.062500,0.000000,-3.360000,-4.480000,-0.018688,-0.158848,0.065408,,0,0,0,0,0,,,,,,,,,-77,17:33:15.575,
,,1808,3120,403,482,474,-0.039062,0.968750,0.085938,5.600000,-1.120000,-4.480000,-0.018688,-0.158848,0.065408,,0,0,0,0,0,,,,,,,,,-77,17:33:15.605,
,,1809,3140,404,480,474,-0.039062,0.968750,0.085938,5.600000,-1.120000,-4.480000,-0.018688,-0.158848,0.065408,,0,0,0,0,0,,,,,,,,,-77,17:33:15.606,
,,1810,3160,403,480,472,-0.039062,0.968750,0.085938,5.600000,-1.120000,-4.480000,-0.018688,-0.158848,0.065408,,0,0,0,0,0,,,,,,,,,-77,17:33:15.635,
,,1811,3180,402,481,472,-0.039062,0.968750,0.085938,5.600000,-1.120000,-4.480000,-0.018688,-0.158848,0.065408,,0,0,0,0,0,,,,,,,,,-77,17:33:15.665,
,,1812,3200,405,479,471,-0.101562,0.968750,0.031250,14.560000,4.480000,-5.600000,-0.018688,-0.158848,0.065408,,0,0,0,0,0,,,,,,,,,-77,17:33:15.666,
,,1813,3220,404,479,465,-0.101562,0.968750,0.031250,14.560000,4.480000,-5.600000,-0.018688,-0.158848,0.065408,,0,0,0,0,0,,,,,,,,,-77,17:33:15.695,
,,1814,3240,402,477,459,-0.101562,0.968750,0.031250,14.560000,4.480000,-5.600000,-0.018688,-0.158848,0.065408,,0,0,0,0,0,,,,,,,,,-77,17:33:15.725,
,,1815,3260,403,476,453,-0.253906,0.976562,0.000000,19.040001,5.600000,-4.480000,-0.018688,-0.158848,0.065408,,0,0,0,0,0,,,,,,,,,-77,17:33:15.726,
,,1816,3280,400,473,447,-0.253906,0.976562,0.000000,19.040001,5.600000,-4.480000,-0.018688,-0.158848,0.065408,,0,0,0,0,0,,,,,,,,,-77,17:33:15.755,
,,1817,3300,401,471,441,-0.253906,0.976562,0.000000,19.040001,5.600000,-4.480000,-0.018688,-0.158848,0.065408,,0,0,0,0,0,,,,,,,,,-77,17:33:15.785,
,,1818,3320,400,470,434,-0.253906,0.976562,0.000000,19.040001,5.600000,-4.480000,-0.018688,-0.158848,0.065408,,0,0,0,0,0,,,,,,,,,-77,17:33:15.786,
,,1819,3340,400,468,429,-0.304688,0.972656,-0.039062,12.320000,-3.360000,-5.600000,-0.018688,-0.158848,0.065408,,0,0,0,0,0,,,,,,,,,-77,17:33:15.815,
,,1820,3360,399,467,421,-0.304688,0.972656,-0.039062,12.320000,-3.360000,-5.600000,-0.018688,-0.158848,0.065408,,0,0,0,0,0,,,,,,,,,-77,17:33:15.845,
,,1821,3380,398,465,419,-0.304688,0.972656,-0.039062,12.320000,-3.360000,-5.600000,-0.018688,-0.158848,0.065408,,0,0,0,0,0,,,,,,,,,-77,17:33:15.846,
,,1822,3400,396,463,417,-0.304688,0.972656,-0.039062,12.320000,-3.360000,-5.600000,-0.018688,-0.158848,0.065408,,0,0,0,0,0,,,,,,,,,-77,17:33:15.875,
,,1823,3420,396,462,415,-0.152344,0.976562,0.058594,-2.240000,-11.200000,-6.720000,-0.018688,-0.158848,0.065408,,0,0,0,0,0,,,,,,,,,-77,17:33:15.876,
,,1824,3440,395,460,417,-0.152344,0.976562,0.058594,-2.240000,-11.200000,-6.720000,-0.018688,-0.158848,0.065408,,0,0,0,0,0,,,,,,,,,-77,17:33:15.905,
,,1825,3460,393,458,416,-0.152344,0.976562,0.058594,-2.240000,-11.200000,-6.720000,-0.018688,-0.158848,0.065408,,0,0,0,0,0,,,,,,,,,-77,17:33:15.935,
,,1826,3480,391,457,416,-0.152344,0.976562,0.058594,-2.240000,-11.200000,-6.720000,-0.018688,-0.158848,0.065408,,0,0,0,0,0,,,,,,,,,-77,17:33:15.936,
,,1827,3500,391,457,416,0.093750,0.988281,0.003906,0.000000,-7.840000,-7.840000,-0.018688,-0.158848,0.065408,,0,0,0,0,0,,,,,,,,,-77,17:33:15.965,
,,1828,3520,391,455,418,0.093750,0.988281,0.003906,0.000000,-7.840000,-7.840000,-0.018688,-0.158848,0.065408,,0,0,0,0,0,,,,,,,,,-77,17:33:15.996,
,,1829,3540,390,455,419,0.093750,0.988281,0.003906,0.000000,-7.840000,-7.840000,-0.018688,-0.158848,0.065408,,0,0,0,0,0,,,,,,,,,-77,17:33:15.996,
,,1830,3560,390,454,419,0.027344,0.988281,-0.074219,4.480000,-3.360000,-3.360000,-0.018688,-0.158848,0.065408,,0,0,0,0,0,,,,,,,,,-77,17:33:16.025,
,,1831,3580,390,453,419,0.027344,0.988281,-0.074219,4.480000,-3.360000,-3.360000,-0.018688,-0.158848,0.065408,,0,0,0,0,0,,,,,,,,,-77,17:33:16.055,
,,1832,3600,390,454,420,0.027344,0.988281,-0.074219,4.480000,-3.360000,-3.360000,-0.018688,-0.158848,0.065408,,0,0,0,0,0,,,,,,,,,-77,17:33:16.056,
,,1833,3620,390,453,420,0.027344,0.988281,-0.074219,4.480000,-3.360000,-3.360000,-0.018688,-0.158848,0.065408,,0,0,0,0,0,,,,,,,,,-77,17:33:16.085,
,,1834,3640,391,454,417,-0.242188,0.960938,0.035156,3.360000,-6.720000,-2.240000,-0.018688,-0.158848,0.065408,,0,0,0,0,0,,,,,,,,,-77,17:33:16.115,
,,1835,3660,391,455,418,-0.242188,0.960938,0.035156,3.360000,-6.720000,-2.240000,0.149504,-0.168192,0.102784,,0,0,0,0,0,,,,,,,,,-77,17:33:16.145,
,,1836,3680,390,454,417,-0.242188,0.960938,0.035156,3.360000,-6.720000,-2.240000,0.149504,-0.168192,0.102784,,0,0,0,0,0,,,,,,,,,-77,17:33:16.146,
,,1837,3700,391,454,413,-0.242188,0.960938,0.035156,3.360000,-6.720000,-2.240000,0.149504,-0.168192,0.102784,,0,0,0,0,0,,,,,,,,,-77,17:33:16.175,
,,1838,3720,391,453,411,-0.132812,0.972656,0.027344,1.120000,-11.200000,-4.480000,0.149504,-0.168192,0.102784,,0,0,0,0,0,,,,,,,,,-77,17:33:16.176,
,,1839,3740,390,450,410,-0.132812,0.972656,0.027344,1.120000,-11.200000,-4.480000,0.149504,-0.168192,0.102784,,0,0,0,0,0,,,,,,,,,-77,17:33:16.205,
,,1840,3760,390,447,407,-0.132812,0.972656,0.027344,1.120000,-11.200000,-4.480000,0.149504,-0.168192,0.102784,,0,0,0,0,0,,,,,,,,,-77,17:33:16.235,
,,1841,3780,389,439,405,-0.007812,0.992188,-0.066406,3.360000,-12.320000,-7.840000,0.149504,-0.168192,0.102784,,0,0,0,0,0,,,,,,,,,-77,17:33:16.236,
,,1842,3800,387,433,404,-0.007812,0.992188,-0.066406,3.360000,-12.320000,-7.840000,0.149504,-0.168192,0.102784,,0,0,0,0,0,,,,,,,,,-77,17:33:16.265,
,,1843,3820,388,427,404,-0.007812,0.992188,-0.066406,3.360000,-12.320000,-7.840000,0.149504,-0.168192,0.102784,,0,0,0,0,0,,,,,,,,,-77,17:33:16.296,
,,1844,3840,388,425,402,-0.007812,0.992188,-0.066406,3.360000,-12.320000,-7.840000,0.149504,-0.168192,0.102784,,0,0,0,0,0,,,,,,,,,-77,17:33:16.296,
,,1845,3860,386,422,401,-0.132812,0.980469,0.003906,2.240000,-14.560000,-5.600000,0.149504,-0.168192,0.102784,,0,0,0,0,0,,,,,,,,,-77,17:33:16.325,
,,1846,3880,387,420,399,-0.132812,0.980469,0.003906,2.240000,-14.560000,-5.600000,0.149504,-0.168192,0.102784,,0,0,0,0,0,,,,,,,,,-77,17:33:16.355,
,,1847,3900,388,419,399,-0.132812,0.980469,0.003906,2.240000,-14.560000,-5.600000,0.149504,-0.168192,0.102784,,0,0,0,0,0,,,,,,,,,-77,17:33:16.355,
,,1848,3920,387,418,398,-0.132812,0.980469,0.003906,2.240000,-14.560000,-5.600000,0.149504,-0.168192,0.102784,,0,0,0,0,0,,,,,,,,,-77,17:33:16.385,
,,1849,3940,388,418,398,-0.179688,0.972656,0.031250,0.000000,-11.200000,-1.120000,0.149504,-0.168192,0.102784,,0,0,0,0,0,,,,,,,,,-77,17:33:16.415,
,,1850,3960,387,417,397,-0.179688,0.972656,0.031250,0.000000,-11.200000,-1.120000,0.149504,-0.168192,0.102784,,0,0,0,0,0,,,,,,,,,-77,17:33:16.416,
,,1851,3980,389,417,398,-0.179688,0.972656,0.031250,0.000000,-11.200000,-1.120000,0.149504,-0.168192,0.102784,,0,0,0,0,0,,,,,,,,,-77,17:33:16.445,
,,1852,4000,389,417,399,-0.179688,0.972656,0.031250,0.000000,-11.200000,-1.120000,0.149504,-0.168192,0.102784,,0,0,0,0,0,,,,,,,,,-77,17:33:16.475,
,,1853,4020,388,419,400,0.031250,0.984375,0.000000,2.240000,-3.360000,-1.120000,0.149504,-0.168192,0.102784,,0,0,0,0,0,,,,,,,,,-77,17:33:16.476,
,,1854,4040,391,419,399,0.031250,0.984375,0.000000,2.240000,-3.360000,-1.120000,0.149504,-0.168192,0.102784,,0,0,0,0,0,,,,,,,,,-77,17:33:16.505,
,,1855,4060,390,419,400,0.031250,0.984375,0.000000,2.240000,-3.360000,-1.120000,0.149504,-0.168192,0.102784,,0,0,0,0,0,,,,,,,,,-77,17:33:16.536,
,,1856,4080,392,420,400,0.031250,0.984375,0.000000,2.240000,-3.360000,-1.120000,0.149504,-0.168192,0.102784,,0,0,0,0,0,,,,,,,,,-77,17:33:16.536,
,,1857,4100,394,421,401,-0.109375,0.976562,-0.054688,3.360000,1.120000,0.000000,0.149504,-0.168192,0.102784,,0,0,0,0,0,,,,,,,,,-77,17:33:16.566,
,,1858,4120,393,423,399,-0.109375,0.976562,-0.054688,3.360000,1.120000,0.000000,0.149504,-0.168192,0.102784,,0,0,0,0,0,,,,,,,,,-77,17:33:16.595,
,,1859,4140,393,425,398,-0.109375,0.976562,-0.054688,3.360000,1.120000,0.000000,0.149504,-0.168192,0.102784,,0,0,0,0,0,,,,,,,,,-77,17:33:16.596,
,,1860,4160,394,426,398,-0.109375,0.976562,0.023438,-2.240000,-3.360000,0.000000,0.149504,-0.168192,0.102784,,0,0,0,0,0,,,,,,,,,-77,17:33:16.625,
,,1861,4180,394,425,398,-0.140625,0.972656,0.027344,-2.240000,-3.360000,0.000000,0.149504,-0.168192,0.102784,,0,0,0,0,0,,,,,,,,,-77,17:33:16.655,
,,1862,4200,393,425,399,-0.140625,0.972656,0.027344,-2.240000,-3.360000,0.000000,0.149504,-0.168192,0.102784,,0,0,0,0,0,,,,,,,,,-77,17:33:16.655,
,,1863,4220,394,425,399,-0.140625,0.972656,0.027344,-2.240000,-3.360000,0.000000,0.149504,-0.168192,0.102784,,0,0,0,0,0,,,,,,,,,-77,17:33:16.685,
,,1864,4240,391,422,398,-0.027344,0.984375,-0.023438,-5.600000,-6.720000,-6.720000,0.149504,-0.168192,0.102784,,0,0,0,0,0,,,,,,,,,-77,17:33:16.715,
,,1865,4260,391,423,398,-0.027344,0.984375,-0.023438,-5.600000,-6.720000,-6.720000,0.149504,-0.168192,0.102784,,0,0,0,0,0,,,,,,,,,-77,17:33:16.716,
,,1866,4280,391,420,397,-0.027344,0.984375,-0.023438,-5.600000,-6.720000,-6.720000,0.149504,-0.168192,0.102784,,0,0,0,0,0,,,,,,,,,-77,17:33:16.745,
,,1867,4300,392,421,398,-0.027344,0.984375,-0.023438,-5.600000,-6.720000,-6.720000,0.149504,-0.168192,0.102784,,0,0,0,0,0,,,,,,,,,-77,17:33:16.775,
,,1868,4320,391,417,398,-0.074219,0.968750,0.042969,-4.480000,-8.960000,-7.840000,0.149504,-0.168192,0.102784,,0,0,0,0,0,,,,,,,,,-77,17:33:16.776,
,,1869,4340,389,414,398,-0.074219,0.968750,0.042969,-4.480000,-8.960000,-7.840000,0.149504,-0.168192,0.102784,,0,0,0,0,0,,,,,,,,,-77,17:33:16.805,
,,1870,4360,388,415,398,-0.074219,0.968750,0.042969,-4.480000,-8.960000,-7.840000,0.149504,-0.168192,0.102784,,0,0,0,0,0,,,,,,,,,-77,17:33:16.837,
,,1871,4380,389,412,400,-0.222656,0.980469,-0.054688,-2.240000,-6.720000,-11.200000,0.149504,-0.168192,0.102784,,0,0,0,0,0,,,,,,,,,-77,17:33:16.837,
,,1872,4400,385,412,403,-0.222656,0.980469,-0.054688,-2.240000,-6.720000,-11.200000,0.149504,-0.168192,0.102784,,0,0,0,0,0,,,,,,,,,-77,17:33:16.865,
,,1873,4420,387,413,407,-0.222656,0.980469,-0.054688,-2.240000,-6.720000,-11.200000,0.149504,-0.168192,0.102784,,0,0,0,0,0,,,,,,,,,-77,17:33:16.895,
,,1874,4440,387,414,410,-0.222656,0.980469,-0.054688,-2.240000,-6.720000,-11.200000,0.149504,-0.168192,0.102784,,0,0,0,0,0,,,,,,,,,-77,17:33:16.896,
,,1875,4460,388,416,414,0.062500,1.007812,-0.039062,-11.200000,-5.600000,-11.200000,0.149504,-0.168192,0.102784,,0,0,0,0,0,,,,,,,,,-77,17:33:16.925,
,,1876,4480,389,417,422,0.062500,1.007812,-0.039062,-11.200000,-5.600000,-11.200000,0.149504,-0.168192,0.102784,,0,0,0,0,0,,,,,,,,,-77,17:33:16.955,
,,1877,4500,390,421,428,0.062500,1.007812,-0.039062,-11.200000,-5.600000,-11.200000,0.149504,-0.168192,0.102784,,0,0,0,0,0,,,,,,,,,-77,17:33:16.955,
,,1878,4520,392,424,434,0.062500,1.007812,-0.039062,-11.200000,-5.600000,-11.200000,0.149504,-0.168192,0.102784,,0,0,0,0,0,,,,,,,,,-77,17:33:16.985,
,,1879,4540,390,423,441,-0.171875,0.957031,0.128906,-11.200000,-5.600000,3.360000,0.149504,-0.168192,0.102784,,0,0,0,0,0,,,,,,,,,-77,17:33:17.014,
,,1880,4560,391,424,445,-0.171875,0.957031,0.128906,-11.200000,-5.600000,3.360000,0.149504,-0.168192,0.102784,,0,0,0,0,0,,,,,,,,,-77,17:33:17.014,
,,1881,4580,392,423,450,-0.171875,0.957031,0.128906,-11.200000,-5.600000,3.360000,0.149504,-0.168192,0.102784,,0,0,0,0,0,,,,,,,,,-77,17:33:17.044,
,,1882,4600,393,421,451,-0.171875,0.957031,0.128906,-11.200000,-5.600000,3.360000,0.149504,-0.168192,0.102784,,0,0,0,0,0,,,,,,,,,-77,17:33:17.074,
,,1883,4620,392,421,453,-0.351562,0.941406,0.113281,-2.240000,0.000000,1.120000,0.149504,-0.168192,0.102784,,0,0,0,0,0,,,,,,,,,-77,17:33:17.074,
,,1884,4640,391,419,452,-0.351562,0.941406,0.113281,-2.240000,0.000000,1.120000,0.149504,-0.168192,0.102784,,0,0,0,0,0,,,,,,,,,-77,17:33:17.103,
,,1885,4660,391,417,453,-0.351562,0.941406,0.113281,-2.240000,0.000000,1.120000,0.149504,-0.168192,0.102784,,0,0,0,0,0,,,,,,,,,-77,17:33:17.134,
,,1886,4680,392,416,451,0.105469,1.007812,-0.128906,-4.480000,-4.480000,-4.480000,0.149504,-0.168192,0.102784,,0,0,0,0,0,,,,,,,,,-77,17:33:17.134,
,,1887,4700,390,413,451,0.105469,1.007812,-0.128906,-4.480000,-4.480000,-4.480000,0.149504,-0.168192,0.102784,,0,0,0,0,0,,,,,,,,,-77,17:33:17.164,
,,1888,4720,392,410,451,0.105469,1.007812,-0.128906,-4.480000,-4.480000,-4.480000,0.149504,-0.168192,0.102784,,0,0,0,0,0,,,,,,,,,-77,17:33:17.195,
,,1889,4740,389,407,451,0.105469,1.007812,-0.128906,-4.480000,-4.480000,-4.480000,0.149504,-0.168192,0.102784,,0,0,0,0,0,,,,,,,,,-77,17:33:17.196,
,,1890,4760,388,402,449,-0.187500,0.949219,0.140625,-13.440001,-16.799999,-5.600000,0.149504,-0.168192,0.102784,,0,0,0,0,0,,,,,,,,,-77,17:33:17.225,
,,1891,4780,387,398,445,-0.187500,0.949219,0.140625,-13.440001,-16.799999,-5.600000,0.149504,-0.168192,0.102784,,0,0,0,0,0,,,,,,,,,-77,17:33:17.255,
,,1892,4800,387,396,442,-0.187500,0.949219,0.140625,-13.440001,-16.799999,-5.600000,0.149504,-0.168192,0.102784,,0,0,0,0,0,,,,,,,,,-77,17:33:17.256,
,,1893,4820,388,396,439,-0.187500,0.949219,0.140625,-13.440001,-16.799999,-5.600000,0.149504,-0.168192,0.102784,,0,0,0,0,0,,,,,,,,,-77,17:33:17.285,
,,1894,4840,388,396,435,-0.246094,0.960938,0.187500,-12.320000,-14.560000,-5.600000,0.149504,-0.168192,0.102784,,0,0,0,0,0,,,,,,,,,-77,17:33:17.315,
,,1895,4860,387,397,432,-0.246094,0.960938,0.187500,-12.320000,-14.560000,-5.600000,0.149504,-0.168192,0.102784,,0,0,0,0,0,,,,,,,,,-77,17:33:17.316,
,,1896,4880,389,402,430,-0.246094,0.960938,0.187500,-12.320000,-14.560000,-5.600000,0.149504,-0.168192,0.102784,,0,0,0,0,0,,,,,,,,,-77,17:33:17.345,
,,1897,4900,388,404,428,-0.246094,0.960938,0.187500,-12.320000,-14.560000,-5.600000,0.149504,-0.168192,0.102784,,0,0,0,0,0,,,,,,,,,-77,17:33:17.375,
,,1898,4920,389,408,429,-0.136719,0.996094,-0.078125,-8.960000,0.000000,-2.240000,0.149504,-0.168192,0.102784,,0,0,0,0,0,,,,,,,,,-77,17:33:17.376,
,,1899,4940,390,415,429,-0.136719,0.996094,-0.078125,-8.960000,0.000000,-2.240000,0.149504,-0.168192,0.102784,,0,0,0,0,0,,,,,,,,,-77,17:33:17.405,
,,1900,4960,393,427,429,-0.136719,0.996094,-0.078125,-8.960000,0.000000,-2.240000,0.149504,-0.168192,0.102784,,0,0,0,0,0,,,,,,,,,-77,17:33:17.435,
,,1901,4980,398,439,431,-0.042969,0.992188,0.136719,-28.000000,-4.480000,0.000000,0.149504,-0.168192,0.102784,,0,0,0,0,0,,,,,,,,,-77,17:33:17.436,
,,1902,5000,403,451,437,-0.035156,0.992188,0.136719,-28.000000,-4.480000,0.000000,0.149504,-0.168192,0.102784,,0,0,0,0,0,,,,,,,,,-77,17:33:17.466,
,,1903,5020,407,463,447,-0.035156,0.992188,0.136719,-28.000000,-4.480000,0.000000,0.149504,-0.168192,0.102784,,0,0,0,0,0,,,,,,,,,-77,17:33:17.496,
,,1904,5040,412,472,459,-0.035156,0.992188,0.136719,-28.000000,-4.480000,0.000000,0.149504,-0.168192,0.102784,,0,0,0,0,0,,,,,,,,,-77,17:33:17.496,
,,1905,5060,414,478,470,0.222656,1.097656,0.148438,-32.480000,-6.720000,-1.120000,0.149504,-0.168192,0.102784,,0,0,0,0,0,,,,,,,,,-77,17:33:17.525,
,,1906,5080,418,484,479,0.222656,1.097656,0.148438,-32.480000,-6.720000,-1.120000,0.149504,-0.168192,0.102784,,0,0,0,0,0,,,,,,,,,-77,17:33:17.555,
,,1907,5100,420,490,485,0.222656,1.097656,0.148438,-32.480000,-6.720000,-1.120000,0.149504,-0.168192,0.102784,,0,0,0,0,0,,,,,,,,,-77,17:33:17.556,
,,1908,5120,420,498,488,0.222656,1.097656,0.148438,-32.480000,-6.720000,-1.120000,0.149504,-0.168192,0.102784,,0,0,0,0,0,,,,,,,,,-77,17:33:17.585,
,,1909,5140,425,508,489,0.179688,1.171875,0.007812,-31.360001,-5.600000,-23.520000,0.149504,-0.168192,0.102784,,0,0,0,0,0,,,,,,,,,-77,17:33:17.615,
,,1910,5160,426,511,490,0.179688,1.171875,0.007812,-31.360001,-5.600000,-23.520000,0.149504,-0.168192,0.102784,,0,0,0,0,0,,,,,,,,,-77,17:33:17.616,
,,1911,5180,428,516,490,0.179688,1.171875,0.007812,-31.360001,-5.600000,-23.520000,0.149504,-0.168192,0.102784,,0,0,0,0,0,,,,,,,,,-74,17:33:17.645,
,,1912,5200,429,520,492,0.300781,0.855469,0.113281,-19.040001,-15.680000,-30.240000,0.149504,-0.168192,0.102784,,0,0,0,0,0,,,,,,,,,-74,17:33:17.675,
,,1913,5220,429,521,493,0.300781,0.855469,0.113281,-19.040001,-15.680000,-30.240000,0.149504,-0.168192,0.102784,,0,0,0,0,0,,,,,,,,,-74,17:33:17.676,
,,1914,5240,429,522,494,0.300781,0.855469,0.113281,-19.040001,-15.680000,-30.240000,0.149504,-0.168192,0.102784,,0,0,0,0,0,,,,,,,,,-74,17:33:17.705,
,,1915,5260,429,524,497,0.300781,0.855469,0.113281,-19.040001,-15.680000,-30.240000,0.149504,-0.186880,0.046720,,0,0,0,0,0,,,,,,,,,-74,17:33:17.735,
,,1916,5280,428,523,499,0.265625,0.757812,0.234375,19.040001,3.360000,6.720000,0.149504,-0.186880,0.046720,,0,0,0,0,0,,,,,,,,,-74,17:33:17.736,
,,1917,5300,428,524,503,0.265625,0.757812,0.234375,19.040001,3.360000,6.720000,0.149504,-0.186880,0.046720,,0,0,0,0,0,,,,,,,,,-74,17:33:17.765,
,,1918,5320,427,525,505,0.265625,0.757812,0.234375,19.040001,3.360000,6.720000,0.149504,-0.186880,0.046720,,0,0,0,0,0,,,,,,,,,-74,17:33:17.795,
,,1919,5340,428,523,509,0.265625,0.757812,0.234375,19.040001,3.360000,6.720000,0.149504,-0.186880,0.046720,,0,0,0,0,0,,,,,,,,,-74,17:33:17.796,
,,1920,5360,428,525,512,0.117188,0.882812,0.421875,28.000000,-34.720001,39.200001,0.149504,-0.186880,0.046720,,0,0,0,0,0,,,,,,,,,-74,17:33:17.825,
,,1921,5380,427,524,517,0.117188,0.882812,0.421875,28.000000,-34.720001,39.200001,0.149504,-0.186880,0.046720,,0,0,0,0,0,,,,,,,,,-74,17:33:17.855,
,,1922,5400,427,523,521,0.117188,0.882812,0.421875,28.000000,-34.720001,39.200001,0.149504,-0.186880,0.046720,,0,0,0,0,0,,,,,,,,,-74,17:33:17.856,
,,1923,5420,427,523,527,0.117188,0.882812,0.421875,28.000000,-34.720001,39.200001,0.149504,-0.186880,0.046720,,0,0,0,0,0,,,,,,,,,-74,17:33:17.885,
,,1924,5440,427,521,532,-0.121094,0.937500,0.417969,13.440001,-43.680000,40.320000,0.149504,-0.186880,0.046720,,0,0,0,0,0,,,,,,,,,-74,17:33:17.916,
,,1925,5460,425,521,537,-0.121094,0.937500,0.417969,13.440001,-43.680000,40.320000,0.149504,-0.186880,0.046720,,0,0,0,0,0,,,,,,,,,-74,17:33:17.916,
,,1926,5480,428,522,538,-0.121094,0.937500,0.417969,13.440001,-43.680000,40.320000,0.149504,-0.186880,0.046720,,0,0,0,0,0,,,,,,,,,-74,17:33:17.945,
,,1927,5500,425,519,542,-0.121094,0.937500,0.417969,13.440001,-43.680000,40.320000,0.149504,-0.186880,0.046720,,0,0,0,0,0,,,,,,,,,-74,17:33:17.975,
,,1928,5520,426,520,540,-0.332031,1.035156,0.171875,11.200000,-24.639999,13.440001,0.149504,-0.186880,0.046720,,0,0,0,0,0,,,,,,,,,-74,17:33:17.976,
,,1929,5540,425,520,539,-0.332031,1.035156,0.171875,11.200000,-24.639999,13.440001,0.149504,-0.186880,0.046720,,0,0,0,0,0,,,,,,,,,-74,17:33:18.005,
,,1930,5560,425,520,538,-0.332031,1.035156,0.171875,11.200000,-24.639999,13.440001,0.149504,-0.186880,0.046720,,0,0,0,0,0,,,,,,,,,-74,17:33:18.036,
,,1931,5580,424,519,531,-0.148438,0.921875,0.238281,-1.120000,-64.959999,-30.240000,0.149504,-0.186880,0.046720,,0,0,0,0,0,,,,,,,,,-74,17:33:18.036,
,,1932,5600,425,523,520,-0.148438,0.921875,0.238281,-1.120000,-64.959999,-30.240000,0.149504,-0.186880,0.046720,,0,0,0,0,0,,,,,,,,,-74,17:33:18.065,
,,1933,5620,423,523,501,-0.148438,0.921875,0.238281,-1.120000,-64.959999,-30.240000,0.149504,-0.186880,0.046720,,0,0,0,0,0,,,,,,,,,-74,17:33:18.095,
,,1934,5640,422,525,484,-0.148438,0.921875,0.238281,-1.120000,-64.959999,-30.240000,0.149504,-0.186880,0.046720,,0,0,0,0,0,,,,,,,,,-74,17:33:18.096,
,,1935,5660,424,527,462,-0.265625,1.054688,0.113281,5.600000,10.080000,-40.320000,0.149504,-0.186880,0.046720,,0,0,0,0,0,,,,,,,,,-74,17:33:18.125,
,,1936,5680,422,525,439,-0.265625,1.054688,0.113281,5.600000,10.080000,-40.320000,0.149504,-0.186880,0.046720,,0,0,0,0,0,,,,,,,,,-74,17:33:18.156,
,,1937,5700,420,527,409,-0.265625,1.054688,0.113281,5.600000,10.080000,-40.320000,0.149504,-0.186880,0.046720,,0,0,0,0,0,,,,,,,,,-74,17:33:18.156,
,,1938,5720,420,526,396,-0.265625,1.054688,0.113281,5.600000,10.080000,-40.320000,0.149504,-0.186880,0.046720,,0,0,0,0,0,,,,,,,,,-74,17:33:18.185,
,,1939,5740,417,522,389,0.265625,0.984375,0.023438,3.360000,4.480000,-20.160000,0.149504,-0.186880,0.046720,,0,0,0,0,0,,,,,,,,,-74,17:33:18.215,
,,1940,5760,414,520,381,0.265625,0.984375,0.023438,3.360000,4.480000,-20.160000,0.149504,-0.186880,0.046720,,0,0,0,0,0,,,,,,,,,-74,17:33:18.216,
,,1941,5780,414,518,375,0.265625,0.984375,0.023438,3.360000,4.480000,-20.160000,0.149504,-0.186880,0.046720,,0,0,0,0,0,,,,,,,,,-74,17:33:18.245,
,,1942,5800,412,517,370,0.125000,0.984375,0.179688,7.840000,-4.480000,-15.680000,0.149504,-0.186880,0.046720,,0,0,0,0,0,,,,,,,,,-74,17:33:18.275,
,,1943,5820,410,513,363,0.125000,0.984375,0.179688,7.840000,-4.480000,-15.680000,0.149504,-0.186880,0.046720,,0,0,0,0,0,,,,,,,,,-74,17:33:18.276,
,,1944,5840,408,511,359,0.125000,0.984375,0.179688,7.840000,-4.480000,-15.680000,0.149504,-0.186880,0.046720,,0,0,0,0,0,,,,,,,,,-74,17:33:18.305,
,,1945,5860,407,509,355,0.125000,0.984375,0.179688,7.840000,-4.480000,-15.680000,0.149504,-0.186880,0.046720,,0,0,0,0,0,,,,,,,,,-74,17:33:18.335,
,,1946,5880,407,508,348,-0.281250,0.984375,0.011719,14.560000,3.360000,-8.960000,0.149504,-0.186880,0.046720,,0,0,0,0,0,,,,,,,,,-74,17:33:18.336,
,,1947,5900,406,507,346,-0.281250,0.984375,0.011719,14.560000,3.360000,-8.960000,0.149504,-0.186880,0.046720,,0,0,0,0,0,,,,,,,,,-74,17:33:18.365,
,,1948,5920,407,506,346,-0.281250,0.984375,0.011719,14.560000,3.360000,-8.960000,0.149504,-0.186880,0.046720,,0,0,0,0,0,,,,,,,,,-74,17:33:18.394,
,,1949,5940,407,503,345,-0.281250,0.984375,0.011719,14.560000,3.360000,-8.960000,0.149504,-0.186880,0.046720,,0,0,0,0,0,,,,,,,,,-74,17:33:18.395,
,,1950,5960,408,503,345,-0.347656,0.988281,0.070312,-2.240000,-4.480000,-2.240000,0.149504,-0.186880,0.046720,,0,0,0,0,0,,,,,,,,,-74,17:33:18.425,
,,1951,5980,407,499,345,-0.347656,0.988281,0.070312,-2.240000,-4.480000,-2.240000,0.149504,-0.186880,0.046720,,0,0,0,0,0,,,,,,,,,-74,17:33:18.458,
,,1952,6000,407,499,345,-0.347656,0.988281,0.070312,-2.240000,-4.480000,-2.240000,0.149504,-0.186880,0.046720,,0,0,0,0,0,,,,,,,,,-74,17:33:18.458,
,,1953,6020,408,498,346,-0.347656,0.988281,0.070312,-2.240000,-4.480000,-2.240000,0.149504,-0.186880,0.046720,,0,0,0,0,0,,,,,,,,,-74,17:33:18.485,
,,1954,6040,408,495,346,-0.152344,0.933594,0.207031,-10.080000,-14.560000,-3.360000,0.149504,-0.186880,0.046720,,0,0,0,0,0,,,,,,,,,-74,17:33:18.515,
,,1955,6060,409,494,344,-0.152344,0.933594,0.207031,-10.080000,-14.560000,-3.360000,0.149504,-0.186880,0.046720,,0,0,0,0,0,,,,,,,,,-74,17:33:18.516,
,,1956,6080,408,487,346,-0.152344,0.933594,0.207031,-10.080000,-14.560000,-3.360000,0.149504,-0.186880,0.046720,,0,0,0,0,0,,,,,,,,,-74,17:33:18.545,
,,1957,6100,408,476,349,-0.152344,0.933594,0.207031,-10.080000,-14.560000,-3.360000,0.149504,-0.186880,0.046720,,0,0,0,0,0,,,,,,,,,-74,17:33:18.575,
,,1958,6120,408,461,354,0.058594,0.972656,0.109375,-3.360000,-16.799999,-10.080000,0.149504,-0.186880,0.046720,,0,0,0,0,0,,,,,,,,,-74,17:33:18.576,
,,1959,6140,406,449,362,0.058594,0.972656,0.109375,-3.360000,-16.799999,-10.080000,0.149504,-0.186880,0.046720,,0,0,0,0,0,,,,,,,,,-74,17:33:18.605,
,,1960,6160,405,438,367,0.058594,0.972656,0.109375,-3.360000,-16.799999,-10.080000,0.149504,-0.186880,0.046720,,0,0,0,0,0,,,,,,,,,-74,17:33:18.635,
,,1961,6180,403,434,370,0.273438,1.007812,0.070312,2.240000,-21.280001,-10.080000,0.149504,-0.186880,0.046720,,0,0,0,0,0,,,,,,,,,-74,17:33:18.636,
,,1962,6200,404,428,371,0.273438,1.007812,0.070312,2.240000,-21.280001,-10.080000,0.149504,-0.186880,0.046720,,0,0,0,0,0,,,,,,,,,-74,17:33:18.665,
,,1963,6220,403,428,372,0.273438,1.007812,0.070312,2.240000,-21.280001,-10.080000,0.149504,-0.186880,0.046720,,0,0,0,0,0,,,,,,,,,-74,17:33:18.695,
,,1964,6240,404,427,371,0.273438,1.007812,0.070312,2.240000,-21.280001,-10.080000,0.149504,-0.186880,0.046720,,0,0,0,0,0,,,,,,,,,-74,17:33:18.696,
,,1965,6260,403,429,369,0.078125,0.980469,0.046875,0.000000,-8.960000,-1.120000,0.149504,-0.186880,0.046720,,0,0,0,0,0,,,,,,,,,-74,17:33:18.725,
,,1966,6280,404,428,367,0.078125,0.980469,0.046875,0.000000,-8.960000,-1.120000,0.149504,-0.186880,0.046720,,0,0,0,0,0,,,,,,,,,-74,17:33:18.756,
,,1967,6300,405,431,363,0.078125,0.980469,0.046875,0.000000,-8.960000,-1.120000,0.149504,-0.186880,0.046720,,0,0,0,0,0,,,,,,,,,-74,17:33:18.756,
,,1968,6320,406,436,360,-0.199219,0.960938,0.046875,-16.799999,-11.200000,4.480000,0.149504,-0.186880,0.046720,,0,0,0,0,0,,,,,,,,,-74,17:33:18.785,
,,1969,6340,406,439,356,-0.199219,0.960938,0.046875,-16.799999,-11.200000,4.480000,0.149504,-0.186880,0.046720,,0,0,0,0,0,,,,,,,,,-74,17:33:18.815,
,,1970,6360,407,442,355,-0.199219,0.960938,0.046875,-16.799999,-11.200000,4.480000,0.149504,-0.186880,0.046720,,0,0,0,0,0,,,,,,,,,-74,17:33:18.816,
,,1971,6380,407,446,352,-0.199219,0.960938,0.046875,-16.799999,-11.200000,4.480000,0.149504,-0.186880,0.046720,,0,0,0,0,0,,,,,,,,,-74,17:33:18.845,
,,1972,6400,407,450,347,-0.132812,0.972656,0.191406,-35.840000,-17.920000,5.600000,0.149504,-0.186880,0.046720,,0,0,0,0,0,,,,,,,,,-74,17:33:18.875,
,,1973,6420,407,459,347,-0.132812,0.972656,0.191406,-35.840000,-17.920000,5.600000,0.149504,-0.186880,0.046720,,0,0,0,0,0,,,,,,,,,-74,17:33:18.876,
,,1974,6440,410,472,342,-0.132812,0.972656,0.191406,-35.840000,-17.920000,5.600000,0.149504,-0.186880,0.046720,,0,0,0,0,0,,,,,,,,,-74,17:33:18.905,
,,1975,6460,410,487,338,-0.132812,0.972656,0.191406,-35.840000,-17.920000,5.600000,0.149504,-0.186880,0.046720,,0,0,0,0,0,,,,,,,,,-74,17:33:18.935,
,,1976,6480,412,498,334,-0.246094,0.890625,0.351562,-47.040001,-10.080000,6.720000,0.149504,-0.186880,0.046720,,0,0,0,0,0,,,,,,,,,-74,17:33:18.936,
,,1977,6500,414,502,333,-0.246094,0.890625,0.351562,-47.040001,-10.080000,6.720000,0.149504,-0.186880,0.046720,,0,0,0,0,0,,,,,,,,,-74,17:33:18.965,
,,1978,6520,411,505,334,-0.246094,0.890625,0.351562,-47.040001,-10.080000,6.720000,0.149504,-0.186880,0.046720,,0,0,0,0,0,,,,,,,,,-74,17:33:18.995,
,,1979,6540,410,502,339,-0.246094,0.890625,0.351562,-47.040001,-10.080000,6.720000,0.149504,-0.186880,0.046720,,0,0,0,0,0,,,,,,,,,-74,17:33:18.996,
,,1980,6560,407,494,367,-0.496094,0.945312,0.265625,-50.400002,5.600000,2.240000,0.149504,-0.186880,0.046720,,0,0,0,0,0,,,,,,,,,-74,17:33:19.025,
,,1981,6580,404,480,408,-0.496094,0.945312,0.265625,-50.400002,5.600000,2.240000,0.149504,-0.186880,0.046720,,0,0,0,0,0,,,,,,,,,-74,17:33:19.054,
,,1982,6600,399,463,463,-0.496094,0.945312,0.265625,-50.400002,5.600000,2.240000,0.149504,-0.186880,0.046720,,0,0,0,0,0,,,,,,,,,-74,17:33:19.054,
,,1983,6620,397,451,515,-0.496094,0.945312,0.265625,-50.400002,5.600000,2.240000,0.149504,-0.186880,0.046720,,0,0,0,0,0,,,,,,,,,-74,17:33:19.085,
,,1984,6640,397,443,551,0.355469,1.605469,0.136719,-64.959999,-3.360000,-6.720000,0.149504,-0.186880,0.046720,,0,0,0,0,0,,,,,,,,,-74,17:33:19.115,
,,1985,6660,402,445,571,0.355469,1.605469,0.136719,-64.959999,-3.360000,-6.720000,0.149504,-0.186880,0.046720,,0,0,0,0,0,,,,,,,,,-74,17:33:19.116,
,,1986,6680,411,461,583,0.355469,1.605469,0.136719,-64.959999,-3.360000,-6.720000,0.149504,-0.186880,0.046720,,0,0,0,0,0,,,,,,,,,-74,17:33:19.145,
,,1987,6700,416,474,589,0.355469,1.605469,0.136719,-64.959999,-3.360000,-6.720000,0.149504,-0.186880,0.046720,,0,0,0,0,0,,,,,,,,,-74,17:33:19.175,
,,1988,6720,419,491,591,-0.781250,1.656250,0.363281,-104.160004,30.240000,-114.239998,0.149504,-0.186880,0.046720,,0,0,0,0,0,,,,,,,,,-74,17:33:19.176,
,,2134,6740,408,444,416,-0.167969,0.730469,0.257812,0.000000,-2.240000,-3.360000,0.112128,-0.233600,0.046720,,0,0,0,0,0,,,,,,,,,-68,17:33:26.483,
,,2135,6760,406,443,419,0.070312,0.617188,0.171875,3.360000,-3.360000,-2.240000,0.112128,-0.233600,0.046720,,0,0,0,0,0,,,,,,,,,-68,17:33:26.511,
,,2136,6780,407,445,420,0.070312,0.617188,0.171875,3.360000,-3.360000,-2.240000,0.112128,-0.233600,0.046720,,0,0,0,0,0,,,,,,,,,-68,17:33:26.511,
,,2137,6800,407,444,423,0.070312,0.617188,0.171875,3.360000,-3.360000,-2.240000,0.112128,-0.233600,0.046720,,0,0,0,0,0,,,,,,,,,-68,17:33:26.540,
,,2138,6820,407,444,424,0.070312,0.617188,0.171875,3.360000,-3.360000,-2.240000,0.112128,-0.233600,0.046720,,0,0,0,0,0,,,,,,,,,-68,17:33:26.574,
,,2139,6840,407,443,426,-0.054688,0.839844,0.324219,-1.120000,-11.200000,-6.720000,0.112128,-0.233600,0.046720,,0,0,0,0,0,,,,,,,,,-68,17:33:26.574,
,,2140,6860,408,444,427,-0.054688,0.839844,0.324219,-1.120000,-11.200000,-6.720000,0.112128,-0.233600,0.046720,,0,0,0,0,0,,,,,,,,,-68,17:33:26.605,
,,2141,6880,405,443,428,-0.054688,0.839844,0.324219,-1.120000,-11.200000,-6.720000,0.112128,-0.233600,0.046720,,0,0,0,0,0,,,,,,,,,-68,17:33:26.630,
,,2142,6900,405,443,427,0.019531,0.796875,0.214844,1.120000,-1.120000,-2.240000,0.112128,-0.233600,0.046720,,0,0,0,0,0,,,,,,,,,-68,17:33:26.631,
,,2143,6920,405,442,427,0.019531,0.796875,0.214844,1.120000,-1.120000,-2.240000,0.112128,-0.233600,0.046720,,0,0,0,0,0,,,,,,,,,-68,17:33:26.660,
,,2144,6940,405,442,428,0.019531,0.796875,0.214844,1.120000,-1.120000,-2.240000,0.112128,-0.233600,0.046720,,0,0,0,0,0,,,,,,,,,-68,17:33:26.692,
,,2145,6960,407,443,427,0.019531,0.796875,0.214844,1.120000,-1.120000,-2.240000,0.112128,-0.233600,0.046720,,0,0,0,0,0,,,,,,,,,-68,17:33:26.692,
,,2146,6980,406,441,427,-0.031250,0.671875,0.253906,4.480000,-4.480000,0.000000,0.112128,-0.233600,0.046720,,0,0,0,0,0,,,,,,,,,-68,17:33:26.722,
,,2147,7000,407,443,426,-0.031250,0.671875,0.253906,4.480000,-4.480000,0.000000,0.112128,-0.233600,0.046720,,0,0,0,0,0,,,,,,,,,-68,17:33:26.750,
,,2148,7020,407,444,425,-0.031250,0.671875,0.253906,4.480000,-4.480000,0.000000,0.112128,-0.233600,0.046720,,0,0,0,0,0,,,,,,,,,-68,17:33:26.751,
,,2149,7040,407,443,425,-0.031250,0.671875,0.253906,4.480000,-4.480000,0.000000,0.112128,-0.233600,0.046720,,0,0,0,0,0,,,,,,,,,-68,17:33:26.780,
,,2150,7060,407,443,424,0.027344,0.878906,0.191406,2.240000,-5.600000,-7.840000,0.112128,-0.233600,0.046720,,0,0,0,0,0,,,,,,,,,-68,17:33:26.811,
,,2151,7080,407,443,423,0.027344,0.878906,0.191406,2.240000,-5.600000,-7.840000,0.112128,-0.233600,0.046720,,0,0,0,0,0,,,,,,,,,-68,17:33:26.812,
,,2152,7100,407,443,424,0.027344,0.878906,0.191406,2.240000,-5.600000,-7.840000,0.112128,-0.233600,0.046720,,0,0,0,0,0,,,,,,,,,-68,17:33:26.840,
,,2153,7120,407,442,422,0.027344,0.878906,0.191406,2.240000,-5.600000,-7.840000,0.112128,-0.233600,0.046720,,0,0,0,0,0,,,,,,,,,-68,17:33:26.876,
,,2154,7140,407,442,421,0.031250,0.789062,0.156250,-1.120000,-3.360000,-11.200000,0.112128,-0.233600,0.046720,,0,0,0,0,0,,,,,,,,,-68,17:33:26.876,
,,2155,7160,406,441,421,0.031250,0.789062,0.156250,-1.120000,-3.360000,-11.200000,0.112128,-0.233600,0.046720,,0,0,0,0,0,,,,,,,,,-68,17:33:26.900,
,,2156,7180,406,442,420,0.031250,0.789062,0.156250,-1.120000,-3.360000,-11.200000,0.112128,-0.233600,0.046720,,0,0,0,0,0,,,,,,,,,-68,17:33:26.930,
,,2157,7200,407,441,420,0.031250,0.789062,0.156250,-1.120000,-3.360000,-11.200000,0.112128,-0.233600,0.046720,,0,0,0,0,0,,,,,,,,,-68,17:33:26.960,
,,2158,7220,407,439,420,-0.023438,0.785156,0.292969,1.120000,-7.840000,-2.240000,0.112128,-0.233600,0.046720,,0,0,0,0,0,,,,,,,,,-68,17:33:26.961,
,,2159,7240,405,440,421,-0.023438,0.785156,0.292969,1.120000,-7.840000,-2.240000,0.112128,-0.233600,0.046720,,0,0,0,0,0,,,,,,,,,-68,17:33:26.961,
,,2160,7260,405,441,419,-0.023438,0.785156,0.292969,1.120000,-7.840000,-2.240000,0.112128,-0.233600,0.046720,,0,0,0,0,0,,,,,,,,,-68,17:33:26.991,
,,2161,7280,406,440,418,-0.082031,0.871094,0.230469,5.600000,-4.480000,0.000000,0.112128,-0.233600,0.046720,,0,0,0,0,0,,,,,,,,,-68,17:33:27.024,
,,2162,7300,406,439,420,-0.082031,0.871094,0.230469,5.600000,-4.480000,0.000000,0.112128,-0.233600,0.046720,,0,0,0,0,0,,,,,,,,,-68,17:33:27.050,
,,2163,7320,406,438,420,-0.082031,0.871094,0.230469,5.600000,-4.480000,0.000000,0.112128,-0.233600,0.046720,,0,0,0,0,0,,,,,,,,,-68,17:33:27.051,
,,2164,7340,405,437,419,-0.082031,0.871094,0.230469,5.600000,-4.480000,0.000000,0.112128,-0.233600,0.046720,,0,0,0,0,0,,,,,,,,,-68,17:33:27.080,
,,2165,7360,406,437,420,-0.078125,0.984375,0.203125,3.360000,-3.360000,-2.240000,0.112128,-0.233600,0.046720,,0,0,0,0,0,,,,,,,,,-68,17:33:27.112,
,,2166,7380,406,436,422,-0.078125,0.984375,0.203125,3.360000,-3.360000,-2.240000,0.112128,-0.233600,0.046720,,0,0,0,0,0,,,,,,,,,-68,17:33:27.113,
,,2167,7400,407,437,423,-0.078125,0.984375,0.203125,3.360000,-3.360000,-2.240000,0.112128,-0.233600,0.046720,,0,0,0,0,0,,,,,,,,,-68,17:33:27.140,
,,2168,7420,406,435,424,0.066406,0.902344,0.218750,1.120000,-7.840000,-4.480000,0.112128,-0.233600,0.046720,,0,0,0,0,0,,,,,,,,,-68,17:33:27.175,
,,2169,7440,406,433,425,0.066406,0.902344,0.218750,1.120000,-7.840000,-4.480000,0.112128,-0.233600,0.046720,,0,0,0,0,0,,,,,,,,,-68,17:33:27.175,
,,2170,7460,405,434,426,0.066406,0.902344,0.218750,1.120000,-7.840000,-4.480000,0.112128,-0.233600,0.046720,,0,0,0,0,0,,,,,,,,,-68,17:33:27.200,
,,2171,7480,406,433,424,0.066406,0.902344,0.218750,1.120000,-7.840000,-4.480000,0.149504,-0.149504,-0.056064,,0,0,0,0,0,,,,,,,,,-68,17:33:27.201,
,,2172,7500,403,433,423,-0.015625,0.894531,0.234375,3.360000,-3.360000,0.000000,0.149504,-0.149504,-0.056064,,0,0,0,0,0,,,,,,,,,-68,17:33:27.231,
,,2173,7520,407,434,422,-0.015625,0.894531,0.234375,3.360000,-3.360000,0.000000,0.149504,-0.149504,-0.056064,,0,0,0,0,0,,,,,,,,,-68,17:33:27.260,
,,2174,7540,406,434,422,-0.015625,0.894531,0.234375,3.360000,-3.360000,0.000000,0.149504,-0.149504,-0.056064,,0,0,0,0,0,,,,,,,,,-68,17:33:27.261,
,,2175,7560,406,436,421,-0.015625,0.894531,0.234375,3.360000,-3.360000,0.000000,0.149504,-0.149504,-0.056064,,0,0,0,0,0,,,,,,,,,-68,17:33:27.291,
,,2176,7580,405,435,421,-0.117188,0.878906,0.222656,4.480000,1.120000,-2.240000,0.149504,-0.149504,-0.056064,,0,0,0,0,0,,,,,,,,,-68,17:33:27.324,
,,2177,7600,406,434,419,-0.117188,0.878906,0.222656,4.480000,1.120000,-2.240000,0.149504,-0.149504,-0.056064,,0,0,0,0,0,,,,,,,,,-68,17:33:27.324,
,,2178,7620,406,434,420,-0.117188,0.878906,0.222656,4.480000,1.120000,-2.240000,0.149504,-0.149504,-0.056064,,0,0,0,0,0,,,,,,,,,-68,17:33:27.350,
,,2179,7640,407,433,420,-0.117188,0.878906,0.222656,4.480000,1.120000,-2.240000,0.149504,-0.149504,-0.056064,,0,0,0,0,0,,,,,,,,,-68,17:33:27.380,
,,2180,7660,406,436,420,-0.125000,0.812500,0.152344,2.240000,6.720000,-5.600000,0.149504,-0.149504,-0.056064,,0,0,0,0,0,,,,,,,,,-68,17:33:27.381,
,,2181,7680,405,434,422,-0.125000,0.812500,0.152344,2.240000,6.720000,-5.600000,0.149504,-0.149504,-0.056064,,0,0,0,0,0,,,,,,,,,-68,17:33:27.410,
,,2182,7700,406,433,423,-0.125000,0.812500,0.152344,2.240000,6.720000,-5.600000,0.149504,-0.149504,-0.056064,,0,0,0,0,0,,,,,,,,,-68,17:33:27.440,
,,2183,7720,406,434,423,-0.125000,0.812500,0.152344,2.240000,6.720000,-5.600000,0.149504,-0.149504,-0.056064,,0,0,0,0,0,,,,,,,,,-68,17:33:27.441,
,,2184,7740,407,434,421,0.070312,0.648438,0.054688,2.240000,16.799999,-3.360000,0.149504,-0.149504,-0.056064,,0,0,0,0,0,,,,,,,,,-68,17:33:27.474,
,,2185,7760,406,434,423,0.070312,0.648438,0.054688,2.240000,16.799999,-3.360000,0.149504,-0.149504,-0.056064,,0,0,0,0,0,,,,,,,,,-68,17:33:27.500,
,,2186,7780,407,434,429,0.070312,0.648438,0.054688,2.240000,16.799999,-3.360000,0.149504,-0.149504,-0.056064,,0,0,0,0,0,,,,,,,,,-68,17:33:27.501,
,,2187,7800,407,437,432,0.027344,0.679688,0.238281,3.360000,6.720000,-2.240000,0.149504,-0.149504,-0.056064,,0,0,0,0,0,,,,,,,,,-68,17:33:27.531,
,,2188,7820,409,437,431,0.027344,0.679688,0.238281,3.360000,6.720000,-2.240000,0.149504,-0.149504,-0.056064,,0,0,0,0,0,,,,,,,,,-68,17:33:27.560,
,,2189,7840,407,441,430,0.027344,0.679688,0.238281,3.360000,6.720000,-2.240000,0.149504,-0.149504,-0.056064,,0,0,0,0,0,,,,,,,,,-68,17:33:27.561,
,,2190,7860,407,441,429,0.027344,0.679688,0.238281,3.360000,6.720000,-2.240000,0.149504,-0.149504,-0.056064,,0,0,0,0,0,,,,,,,,,-68,17:33:27.592,
,,2191,7880,406,443,425,-0.003906,0.898438,0.164062,5.600000,6.720000,-3.360000,0.149504,-0.149504,-0.056064,,0,0,0,0,0,,,,,,,,,-68,17:33:27.624,
,,2192,7900,408,444,419,-0.003906,0.898438,0.164062,5.600000,6.720000,-3.360000,0.149504,-0.149504,-0.056064,,0,0,0,0,0,,,,,,,,,-68,17:33:27.624,
,,2193,7920,407,444,412,-0.003906,0.898438,0.164062,5.600000,6.720000,-3.360000,0.149504,-0.149504,-0.056064,,0,0,0,0,0,,,,,,,,,-68,17:33:27.650,
,,2194,7940,408,445,405,-0.003906,0.898438,0.164062,5.600000,6.720000,-3.360000,0.149504,-0.149504,-0.056064,,0,0,0,0,0,,,,,,,,,-68,17:33:27.680,
,,2195,7960,406,444,400,-0.136719,0.875000,0.261719,8.960000,7.840000,-4.480000,0.149504,-0.149504,-0.056064,,0,0,0,0,0,,,,,,,,,-68,17:33:27.681,
,,2196,7980,406,444,393,-0.136719,0.875000,0.261719,8.960000,7.840000,-4.480000,0.149504,-0.149504,-0.056064,,0,0,0,0,0,,,,,,,,,-68,17:33:27.710,
,,2197,8000,406,444,384,-0.136719,0.875000,0.261719,8.960000,7.840000,-4.480000,0.149504,-0.149504,-0.056064,,0,0,0,0,0,,,,,,,,,-63,17:33:27.741,
,,2198,8020,405,439,382,-0.179688,0.878906,0.109375,10.080000,6.720000,-2.240000,0.149504,-0.149504,-0.056064,,0,0,0,0,0,,,,,,,,,-63,17:33:27.742,
,,2199,8040,404,438,380,-0.179688,0.878906,0.109375,10.080000,6.720000,-2.240000,0.149504,-0.149504,-0.056064,,0,0,0,0,0,,,,,,,,,-63,17:33:27.775,
,,2200,8060,403,435,379,-0.179688,0.878906,0.109375,10.080000,6.720000,-2.240000,0.149504,-0.149504,-0.056064,,0,0,0,0,0,,,,,,,,,-63,17:33:27.800,
,,2201,8080,403,433,378,-0.179688,0.878906,0.109375,10.080000,6.720000,-2.240000,0.149504,-0.149504,-0.056064,,0,0,0,0,0,,,,,,,,,-63,17:33:27.801,
,,2202,8100,403,430,381,0.132812,0.949219,-0.046875,-1.120000,-2.240000,-3.360000,0.149504,-0.149504,-0.056064,,0,0,0,0,0,,,,,,,,,-63,17:33:27.831,
,,2203,8120,402,429,381,0.132812,0.949219,-0.046875,-1.120000,-2.240000,-3.360000,0.149504,-0.149504,-0.056064,,0,0,0,0,0,,,,,,,,,-63,17:33:27.860,
,,2204,8140,403,428,382,0.132812,0.949219,-0.046875,-1.120000,-2.240000,-3.360000,0.149504,-0.149504,-0.056064,,0,0,0,0,0,,,,,,,,,-63,17:33:27.860,
,,2205,8160,404,428,383,0.132812,0.949219,-0.046875,-1.120000,-2.240000,-3.360000,0.149504,-0.149504,-0.056064,,0,0,0,0,0,,,,,,,,,-63,17:33:27.892,
,,2206,8180,403,427,382,-0.039062,0.929688,0.226562,-10.080000,-3.360000,1.120000,0.149504,-0.149504,-0.056064,,0,0,0,0,0,,,,,,,,,-63,17:33:27.925,
,,2207,8200,403,428,380,-0.039062,0.929688,0.226562,-10.080000,-3.360000,1.120000,0.149504,-0.149504,-0.056064,,0,0,0,0,0,,,,,,,,,-63,17:33:27.926,
,,2208,8220,404,428,380,-0.039062,0.929688,0.226562,-10.080000,-3.360000,1.120000,0.149504,-0.149504,-0.056064,,0,0,0,0,0,,,,,,,,,-63,17:33:27.950,
,,2209,8240,405,429,381,-0.039062,0.929688,0.226562,-10.080000,-3.360000,1.120000,0.149504,-0.149504,-0.056064,,0,0,0,0,0,,,,,,,,,-63,17:33:27.980,
,,2210,8260,405,430,384,0.171875,0.988281,0.042969,-15.680000,5.600000,4.480000,0.149504,-0.149504,-0.056064,,0,0,0,0,0,,,,,,,,,-63,17:33:27.981,
,,2211,8280,407,436,400,0.171875,0.988281,0.042969,-15.680000,5.600000,4.480000,0.149504,-0.149504,-0.056064,,0,0,0,0,0,,,,,,,,,-63,17:33:28.010,
,,2212,8300,408,440,425,0.171875,0.988281,0.042969,-15.680000,5.600000,4.480000,0.149504,-0.149504,-0.056064,,0,0,0,0,0,,,,,,,,,-63,17:33:28.042,
,,2213,8320,412,455,460,0.171875,0.988281,0.042969,-15.680000,5.600000,4.480000,0.149504,-0.149504,-0.056064,,0,0,0,0,0,,,,,,,,,-63,17:33:28.043,
,,2214,8340,416,473,483,0.316406,0.972656,0.339844,-19.040001,11.200000,4.480000,0.149504,-0.149504,-0.056064,,0,0,0,0,0,,,,,,,,,-63,17:33:28.068,
,,2215,8360,418,489,494,0.316406,0.972656,0.339844,-19.040001,11.200000,4.480000,0.149504,-0.149504,-0.056064,,0,0,0,0,0,,,,,,,,,-63,17:33:28.100,
,,2216,8380,420,502,499,0.316406,0.972656,0.339844,-19.040001,11.200000,4.480000,0.149504,-0.149504,-0.056064,,0,0,0,0,0,,,,,,,,,-63,17:33:28.101,
,,2217,8400,421,511,502,0.316406,0.972656,-0.253906,-14.560000,142.240005,24.639999,0.149504,-0.149504,-0.056064,,0,0,0,0,0,,,,,,,,,-63,17:33:28.130,
,,2218,8420,421,517,505,0.468750,0.839844,-0.265625,-14.560000,142.240005,24.639999,0.149504,-0.149504,-0.056064,,0,0,0,0,0,,,,,,,,,-63,17:33:28.160,
,,2219,8440,419,521,505,0.468750,0.839844,-0.265625,-14.560000,142.240005,24.639999,0.149504,-0.149504,-0.056064,,0,0,0,0,0,,,,,,,,,-63,17:33:28.161,
,,2220,8460,421,526,487,0.468750,0.839844,-0.265625,-14.560000,142.240005,24.639999,0.149504,-0.149504,-0.056064,,0,0,0,0,0,,,,,,,,,-63,17:33:28.193,
,,2221,8480,421,527,473,-0.105469,0.925781,-0.582031,24.639999,245.279999,76.160004,0.149504,-0.149504,-0.056064,,0,0,0,0,0,,,,,,,,,-63,17:33:28.220,
,,2222,8500,418,526,451,-0.105469,0.925781,-0.582031,24.639999,245.279999,76.160004,0.149504,-0.149504,-0.056064,,0,0,0,0,0,,,,,,,,,-63,17:33:28.220,
,,2223,8520,420,524,427,-0.105469,0.925781,-0.582031,24.639999,245.279999,76.160004,0.149504,-0.149504,-0.056064,,0,0,0,0,0,,,,,,,,,-63,17:33:28.250,
,,2224,8540,419,521,405,-0.105469,0.925781,-0.582031,24.639999,245.279999,76.160004,0.149504,-0.149504,-0.056064,,0,0,0,0,0,,,,,,,,,-63,17:33:28.280,
,,2225,8560,418,515,391,0.117188,0.894531,0.382812,21.280001,21.280001,1.120000,0.149504,-0.149504,-0.056064,,0,0,0,0,0,,,,,,,,,-63,17:33:28.281,
,,2226,8580,416,509,379,0.117188,0.894531,0.382812,21.280001,21.280001,1.120000,0.149504,-0.149504,-0.056064,,0,0,0,0,0,,,,,,,,,-63,17:33:28.310,
,,2227,8600,414,504,372,0.117188,0.894531,0.382812,21.280001,21.280001,1.120000,0.149504,-0.149504,-0.056064,,0,0,0,0,0,,,,,,,,,-63,17:33:28.343,
,,2228,8620,413,500,363,-0.460938,0.957031,0.277344,8.960000,0.000000,-7.840000,0.149504,-0.149504,-0.056064,,0,0,0,0,0,,,,,,,,,-63,17:33:28.343,
,,2229,8640,411,495,360,-0.460938,0.957031,0.277344,8.960000,0.000000,-7.840000,0.149504,-0.149504,-0.056064,,0,0,0,0,0,,,,,,,,,-63,17:33:28.370,
,,2230,8660,410,491,358,-0.460938,0.957031,0.277344,8.960000,0.000000,-7.840000,0.149504,-0.149504,-0.056064,,0,0,0,0,0,,,,,,,,,-63,17:33:28.400,
,,2231,8680,410,487,356,-0.460938,0.957031,0.277344,8.960000,0.000000,-7.840000,0.149504,-0.149504,-0.056064,,0,0,0,0,0,,,,,,,,,-63,17:33:28.401,
,,2232,8700,410,485,355,-0.105469,0.949219,0.148438,3.360000,-4.480000,-7.840000,0.149504,-0.149504,-0.056064,,0,0,0,0,0,,,,,,,,,-63,17:33:28.431,
,,2233,8720,408,478,357,-0.105469,0.949219,0.148438,3.360000,-4.480000,-7.840000,0.149504,-0.149504,-0.056064,,0,0,0,0,0,,,,,,,,,-63,17:33:28.460,
,,2234,8740,407,471,359,-0.105469,0.949219,0.148438,3.360000,-4.480000,-7.840000,0.149504,-0.149504,-0.056064,,0,0,0,0,0,,,,,,,,,-63,17:33:28.461,
,,2235,8760,408,465,363,-0.105469,0.949219,0.148438,3.360000,-4.480000,-7.840000,0.149504,-0.149504,-0.056064,,0,0,0,0,0,,,,,,,,,-63,17:33:28.493,
,,2236,8780,403,456,373,-0.171875,0.992188,0.230469,-2.240000,-10.080000,-5.600000,0.149504,-0.149504,-0.056064,,0,0,0,0,0,,,,,,,,,-63,17:33:28.520,
,,2237,8800,403,449,382,-0.171875,0.992188,0.230469,-2.240000,-10.080000,-5.600000,0.149504,-0.149504,-0.056064,,0,0,0,0,0,,,,,,,,,-63,17:33:28.521,
,,2238,8820,403,440,396,-0.171875,0.992188,0.230469,-2.240000,-10.080000,-5.600000,0.149504,-0.149504,-0.056064,,0,0,0,0,0,,,,,,,,,-63,17:33:28.551,
,,2239,8840,402,437,420,-0.171875,0.992188,0.230469,-2.240000,-10.080000,-5.600000,0.149504,-0.149504,-0.056064,,0,0,0,0,0,,,,,,,,,-63,17:33:28.580,
,,2240,8860,405,435,445,0.453125,0.984375,-0.003906,-4.480000,-6.720000,-5.600000,0.149504,-0.149504,-0.056064,,0,0,0,0,0,,,,,,,,,-63,17:33:28.581,
,,2241,8880,408,439,470,0.453125,0.984375,-0.003906,-4.480000,-6.720000,-5.600000,0.149504,-0.149504,-0.056064,,0,0,0,0,0,,,,,,,,,-63,17:33:28.610,
,,2242,8900,413,460,483,0.453125,0.984375,-0.003906,-4.480000,-6.720000,-5.600000,0.149504,-0.149504,-0.056064,,0,0,0,0,0,,,,,,,,,-63,17:33:28.643,
,,2243,8920,417,484,492,0.453125,0.984375,-0.003906,-4.480000,-6.720000,-5.600000,0.149504,-0.149504,-0.056064,,0,0,0,0,0,,,,,,,,,-63,17:33:28.643,
,,2244,8940,422,502,496,0.445312,1.289062,0.132812,-28.000000,8.960000,-5.600000,0.149504,-0.149504,-0.056064,,0,0,0,0,0,,,,,,,,,-63,17:33:28.670,
,,2245,8960,425,513,497,0.445312,1.289062,0.132812,-28.000000,8.960000,-5.600000,0.149504,-0.149504,-0.056064,,0,0,0,0,0,,,,,,,,,-63,17:33:28.700,
,,2246,8980,426,520,498,0.445312,1.289062,0.132812,-28.000000,8.960000,-5.600000,0.149504,-0.149504,-0.056064,,0,0,0,0,0,,,,,,,,,-63,17:33:28.701,
,,2247,9000,427,525,496,1.023438,0.644531,-0.246094,-31.360001,178.080002,24.639999,0.149504,-0.149504,-0.056064,,0,0,0,0,0,,,,,,,,,-63,17:33:28.730,
,,2248,9020,428,529,496,1.023438,0.644531,-0.246094,-31.360001,178.080002,24.639999,0.149504,-0.149504,-0.056064,,0,0,0,0,0,,,,,,,,,-63,17:33:28.760,
,,2249,9040,427,532,497,1.023438,0.644531,-0.246094,-31.360001,178.080002,24.639999,0.149504,-0.149504,-0.056064,,0,0,0,0,0,,,,,,,,,-63,17:33:28.761,
,,2250,9060,426,531,497,1.023438,0.644531,-0.246094,-31.360001,178.080002,24.639999,-0.112128,-0.214912,-0.140160,,0,0,0,0,0,,,,,,,,,-63,17:33:28.794,
,,2251,9080,425,533,495,0.031250,1.117188,-0.496094,19.040001,380.799988,100.800003,-0.112128,-0.214912,-0.140160,,0,0,0,0,0,,,,,,,,,-63,17:33:28.820,
,,2252,9100,426,532,495,0.031250,1.117188,-0.496094,19.040001,380.799988,100.800003,-0.112128,-0.214912,-0.140160,,0,0,0,0,0,,,,,,,,,-63,17:33:28.821,
,,2253,9120,422,529,488,0.031250,1.117188,-0.496094,19.040001,380.799988,100.800003,-0.112128,-0.214912,-0.140160,,0,0,0,0,0,,,,,,,,,-63,17:33:28.851,
,,2254,9140,418,521,462,0.031250,1.117188,-0.496094,19.040001,380.799988,100.800003,-0.112128,-0.214912,-0.140160,,0,0,0,0,0,,,,,,,,,-63,17:33:28.880,
,,2255,9160,414,514,443,-1.089844,1.085938,-0.937500,15.680000,287.839996,75.040001,-0.112128,-0.214912,-0.140160,,0,0,0,0,0,,,,,,,,,-63,17:33:28.881,
,,2256,9180,411,507,422,-1.089844,1.085938,-0.937500,15.680000,287.839996,75.040001,-0.112128,-0.214912,-0.140160,,0,0,0,0,0,,,,,,,,,-63,17:33:28.911,
,,2257,9200,408,496,406,-1.089844,1.085938,-0.937500,15.680000,287.839996,75.040001,-0.112128,-0.214912,-0.140160,,0,0,0,0,0,,,,,,,,,-63,17:33:28.944,
,,2258,9220,403,487,396,-0.441406,0.914062,0.449219,30.240000,31.360001,-1.120000,-0.112128,-0.214912,-0.140160,,0,0,0,0,0,,,,,,,,,-63,17:33:28.944,
,,2259,9240,404,480,388,-0.441406,0.914062,0.449219,30.240000,31.360001,-1.120000,-0.112128,-0.214912,-0.140160,,0,0,0,0,0,,,,,,,,,-63,17:33:28.970,
,,2260,9260,399,474,386,-0.441406,0.914062,0.449219,30.240000,31.360001,-1.120000,-0.112128,-0.214912,-0.140160,,0,0,0,0,0,,,,,,,,,-63,17:33:29.000,
,,2261,9280,399,466,384,-0.441406,0.914062,0.449219,30.240000,31.360001,-1.120000,-0.112128,-0.214912,-0.140160,,0,0,0,0,0,,,,,,,,,-63,17:33:29.001,
,,2262,9300,397,462,385,-0.378906,0.941406,0.335938,15.680000,-7.840000,-23.520000,-0.112128,-0.214912,-0.140160,,0,0,0,0,0,,,,,,,,,-63,17:33:29.031,
,,2263,9320,393,456,389,-0.378906,0.941406,0.335938,15.680000,-7.840000,-23.520000,-0.112128,-0.214912,-0.140160,,0,0,0,0,0,,,,,,,,,-63,17:33:29.061,
,,2264,9340,393,450,396,-0.378906,0.941406,0.335938,15.680000,-7.840000,-23.520000,-0.112128,-0.214912,-0.140160,,0,0,0,0,0,,,,,,,,,-63,17:33:29.061,
,,2265,9360,391,446,403,-0.378906,0.941406,0.335938,15.680000,-7.840000,-23.520000,-0.112128,-0.214912,-0.140160,,0,0,0,0,0,,,,,,,,,-63,17:33:29.094,
,,2266,9380,389,439,418,-0.046875,0.988281,0.082031,21.280001,-1.120000,-16.799999,-0.112128,-0.214912,-0.140160,,0,0,0,0,0,,,,,,,,,-63,17:33:29.120,
,,2267,9400,390,434,434,-0.046875,0.988281,0.082031,21.280001,-1.120000,-16.799999,-0.112128,-0.214912,-0.140160,,0,0,0,0,0,,,,,,,,,-63,17:33:29.121,
,,2268,9420,385,427,449,-0.046875,0.988281,0.082031,21.280001,-1.120000,-16.799999,-0.112128,-0.214912,-0.140160,,0,0,0,0,0,,,,,,,,,-63,17:33:29.150,
,,2269,9440,386,425,458,-0.046875,0.988281,0.082031,21.280001,-1.120000,-16.799999,-0.112128,-0.214912,-0.140160,,0,0,0,0,0,,,,,,,,,-63,17:33:29.180,
,,2270,9460,384,423,464,0.097656,0.980469,-0.023438,14.560000,-2.240000,-16.799999,-0.112128,-0.214912,-0.140160,,0,0,0,0,0,,,,,,,,,-63,17:33:29.181,
,,2271,9480,383,419,471,0.097656,0.980469,-0.023438,14.560000,-2.240000,-16.799999,-0.112128,-0.214912,-0.140160,,0,0,0,0,0,,,,,,,,,-63,17:33:29.213,
,,2272,9500,380,419,474,0.097656,0.980469,-0.023438,14.560000,-2.240000,-16.799999,-0.112128,-0.214912,-0.140160,,0,0,0,0,0,,,,,,,,,-63,17:33:29.245,
,,2273,9520,381,416,478,-0.164062,0.980469,0.019531,-1.120000,-10.080000,-13.440001,-0.112128,-0.214912,-0.140160,,0,0,0,0,0,,,,,,,,,-63,17:33:29.246,
,,2274,9540,380,414,483,-0.164062,0.980469,0.019531,-1.120000,-10.080000,-13.440001,-0.112128,-0.214912,-0.140160,,0,0,0,0,0,,,,,,,,,-63,17:33:29.270,
,,2275,9560,379,414,488,-0.164062,0.980469,0.019531,-1.120000,-10.080000,-13.440001,-0.112128,-0.214912,-0.140160,,0,0,0,0,0,,,,,,,,,-63,17:33:29.300,
,,2276,9580,379,414,493,-0.164062,0.980469,0.019531,-1.120000,-10.080000,-13.440001,-0.112128,-0.214912,-0.140160,,0,0,0,0,0,,,,,,,,,-63,17:33:29.301,
,,2277,9600,379,417,499,-0.074219,0.968750,0.171875,-16.799999,-19.040001,-11.200000,-0.112128,-0.214912,-0.140160,,0,0,0,0,0,,,,,,,,,-63,17:33:29.331,
,,2278,9620,380,418,504,-0.074219,0.968750,0.171875,-16.799999,-19.040001,-11.200000,-0.112128,-0.214912,-0.140160,,0,0,0,0,0,,,,,,,,,-63,17:33:29.363,
,,2279,9640,381,420,513,-0.074219,0.968750,0.171875,-16.799999,-19.040001,-11.200000,-0.112128,-0.214912,-0.140160,,0,0,0,0,0,,,,,,,,,-63,17:33:29.363,
,,2280,9660,381,426,522,-0.074219,0.968750,0.171875,-16.799999,-19.040001,-11.200000,-0.112128,-0.214912,-0.140160,,0,0,0,0,0,,,,,,,,,-63,17:33:29.395,
,,2281,9680,380,431,532,-0.070312,0.976562,0.296875,-16.799999,-6.720000,-4.480000,-0.112128,-0.214912,-0.140160,,0,0,0,0,0,,,,,,,,,-63,17:33:29.420,
,,2282,9700,381,436,540,-0.070312,0.976562,0.296875,-16.799999,-6.720000,-4.480000,-0.112128,-0.214912,-0.140160,,0,0,0,0,0,,,,,,,,,-63,17:33:29.421,
,,2283,9720,383,439,546,-0.070312,0.976562,0.296875,-16.799999,-6.720000,-4.480000,-0.112128,-0.214912,-0.140160,,0,0,0,0,0,,,,,,,,,-63,17:33:29.450,
,,2284,9740,386,445,550,-0.070312,0.976562,0.296875,-16.799999,-6.720000,-4.480000,-0.112128,-0.214912,-0.140160,,0,0,0,0,0,,,,,,,,,-63,17:33:29.480,
,,2285,9760,390,457,552,0.097656,1.398438,0.148438,-23.520000,14.560000,-13.440001,-0.112128,-0.214912,-0.140160,,0,0,0,0,0,,,,,,,,,-63,17:33:29.514,
,,2286,9780,398,477,553,0.097656,1.398438,0.148438,-23.520000,14.560000,-13.440001,-0.112128,-0.214912,-0.140160,,0,0,0,0,0,,,,,,,,,-63,17:33:29.515,
,,2287,9800,407,499,551,0.097656,1.398438,0.148438,-23.520000,14.560000,-13.440001,-0.112128,-0.214912,-0.140160,,0,0,0,0,0,,,,,,,,,-63,17:33:29.545,
,,2288,9820,413,513,551,0.394531,0.773438,0.058594,-56.000000,40.320000,-59.360001,-0.112128,-0.214912,-0.140160,,0,0,0,0,0,,,,,,,,,-63,17:33:29.545,
,,2289,9840,419,523,546,0.394531,0.773438,0.058594,-56.000000,40.320000,-59.360001,-0.112128,-0.214912,-0.140160,,0,0,0,0,0,,,,,,,,,-63,17:33:29.570,
,,2290,9860,421,530,544,0.394531,0.773438,0.058594,-56.000000,40.320000,-59.360001,-0.112128,-0.214912,-0.140160,,0,0,0,0,0,,,,,,,,,-63,17:33:29.600,
,,2291,9880,424,534,542,0.394531,0.773438,0.058594,-56.000000,40.320000,-59.360001,-0.112128,-0.214912,-0.140160,,0,0,0,0,0,,,,,,,,,-63,17:33:29.601,
,,2292,9900,425,537,541,1.031250,0.578125,-0.332031,-4.480000,178.080002,24.639999,-0.112128,-0.214912,-0.140160,,0,0,0,0,0,,,,,,,,,-63,17:33:29.630,
,,2293,9920,424,538,539,1.031250,0.578125,-0.332031,-4.480000,178.080002,24.639999,-0.112128,-0.214912,-0.140160,,0,0,0,0,0,,,,,,,,,-63,17:33:29.662,
,,2294,9940,425,538,537,1.031250,0.578125,-0.332031,-4.480000,178.080002,24.639999,-0.112128,-0.214912,-0.140160,,0,0,0,0,0,,,,,,,,,-63,17:33:29.663,
,,2295,9960,425,537,532,1.031250,0.578125,-0.332031,-4.480000,178.080002,24.639999,-0.112128,-0.214912,-0.140160,,0,0,0,0,0,,,,,,,,,-63,17:33:29.690,
,,2296,9980,425,535,508,-0.046875,1.128906,-0.609375,28.000000,274.399994,135.520004,-0.112128,-0.214912,-0.140160,,0,0,0,0,0,,,,,,,,,-63,17:33:29.720,
,,2297,10000,424,533,495,-0.046875,1.128906,-0.609375,28.000000,274.399994,135.520004,-0.112128,-0.214912,-0.140160,,0,0,0,0,0,,,,,,,,,-63,17:33:29.721,
,,2298,10020,422,528,481,-0.046875,1.128906,-0.609375,28.000000,274.399994,135.520004,-0.112128,-0.214912,-0.140160,,0,0,0,0,0,,,,,,,,,-63,17:33:29.750,
,,2299,10040,420,521,461,-0.046875,1.128906,-0.609375,28.000000,274.399994,135.520004,-0.112128,-0.214912,-0.140160,,0,0,0,0,0,,,,,,,,,-63,17:33:29.780,
,,2300,10060,414,511,426,-0.378906,0.773438,0.214844,17.920000,99.680000,29.120001,-0.112128,-0.214912,-0.140160,,0,0,0,0,0,,,,,,,,,-63,17:33:29.781,
,,2301,10080,410,504,407,-0.378906,0.773438,0.214844,17.920000,99.680000,29.120001,-0.112128,-0.214912,-0.140160,,0,0,0,0,0,,,,,,,,,-63,17:33:29.813,
,,2302,10100,409,498,392,-0.378906,0.773438,0.214844,17.920000,99.680000,29.120001,-0.112128,-0.214912,-0.140160,,0,0,0,0,0,,,,,,,,,-63,17:33:29.840,
,,2303,10120,406,493,381,-0.304688,0.945312,0.277344,6.720000,-4.480000,-1.120000,-0.112128,-0.214912,-0.140160,,0,0,0,0,0,,,,,,,,,-63,17:33:29.840,
,,2304,10140,406,491,372,-0.304688,0.945312,0.277344,6.720000,-4.480000,-1.120000,-0.112128,-0.214912,-0.140160,,0,0,0,0,0,,,,,,,,,-63,17:33:29.871,
,,2305,10160,406,491,364,-0.304688,0.945312,0.277344,6.720000,-4.480000,-1.120000,-0.112128,-0.214912,-0.140160,,0,0,0,0,0,,,,,,,,,-63,17:33:29.900,
,,2306,10180,406,490,359,-0.304688,0.945312,0.277344,6.720000,-4.480000,-1.120000,-0.112128,-0.214912,-0.140160,,0,0,0,0,0,,,,,,,,,-63,17:33:29.901,
,,2307,10200,406,490,358,-0.179688,0.996094,-0.027344,6.720000,5.600000,-1.120000,-0.112128,-0.214912,-0.140160,,0,0,0,0,0,,,,,,,,,-63,17:33:29.930,
,,2308,10220,407,490,356,-0.179688,0.996094,-0.027344,6.720000,5.600000,-1.120000,-0.112128,-0.214912,-0.140160,,0,0,0,0,0,,,,,,,,,-63,17:33:29.963,
,,2309,10240,407,489,359,-0.179688,0.996094,-0.027344,6.720000,5.600000,-1.120000,-0.112128,-0.214912,-0.140160,,0,0,0,0,0,,,,,,,,,-63,17:33:29.963,
,,2310,10260,408,489,360,-0.179688,0.996094,-0.027344,6.720000,5.600000,-1.120000,-0.112128,-0.214912,-0.140160,,0,0,0,0,0,,,,,,,,,-63,17:33:29.990,
,,2311,10280,411,492,361,0.019531,0.968750,0.140625,-2.240000,-1.120000,-2.240000,-0.112128,-0.214912,-0.140160,,0,0,0,0,0,,,,,,,,,-63,17:33:30.026,
,,2312,10300,411,496,361,0.019531,0.968750,0.140625,-2.240000,-1.120000,-2.240000,-0.112128,-0.214912,-0.140160,,0,0,0,0,0,,,,,,,,,-63,17:33:30.026,
,,2313,10320,414,503,365,0.019531,0.968750,0.140625,-2.240000,-1.120000,-2.240000,-0.112128,-0.214912,-0.140160,,0,0,0,0,0,,,,,,,,,-63,17:33:30.050,
,,2314,10340,417,510,368,0.019531,0.968750,0.109375,0.000000,-2.240000,-2.240000,-0.112128,-0.214912,-0.140160,,0,0,0,0,0,,,,,,,,,-63,17:33:30.079,
,,2315,10360,419,516,377,-0.031250,0.992188,0.121094,0.000000,-2.240000,-2.240000,-0.112128,-0.214912,-0.140160,,0,0,0,0,0,,,,,,,,,-63,17:33:30.080,
,,2316,10380,421,521,387,-0.031250,0.992188,0.121094,0.000000,-2.240000,-2.240000,-0.112128,-0.214912,-0.140160,,0,0,0,0,0,,,,,,,,,-63,17:33:30.112,
,,2317,10400,422,525,402,-0.031250,0.992188,0.121094,0.000000,-2.240000,-2.240000,-0.112128,-0.214912,-0.140160,,0,0,0,0,0,,,,,,,,,-63,17:33:30.140,
,,2318,10420,424,529,421,-0.101562,0.953125,0.039062,1.120000,23.520000,3.360000,-0.112128,-0.214912,-0.140160,,0,0,0,0,0,,,,,,,,,-63,17:33:30.140,
,,2319,10440,424,528,435,-0.101562,0.953125,0.039062,1.120000,23.520000,3.360000,-0.112128,-0.214912,-0.140160,,0,0,0,0,0,,,,,,,,,-63,17:33:30.171,
,,2320,10460,422,529,440,-0.101562,0.953125,0.039062,1.120000,23.520000,3.360000,-0.112128,-0.214912,-0.140160,,0,0,0,0,0,,,,,,,,,-63,17:33:30.200,
,,2321,10480,422,529,443,-0.101562,0.953125,0.039062,1.120000,23.520000,3.360000,-0.112128,-0.214912,-0.140160,,0,0,0,0,0,,,,,,,,,-63,17:33:30.201,
,,2322,10500,422,529,446,-0.156250,0.941406,0.046875,14.560000,75.040001,-1.120000,-0.112128,-0.214912,-0.140160,,0,0,0,0,0,,,,,,,,,-63,17:33:30.231,
,,2323,10520,422,528,449,-0.156250,0.941406,0.046875,14.560000,75.040001,-1.120000,-0.112128,-0.214912,-0.140160,,0,0,0,0,0,,,,,,,,,-63,17:33:30.321,
,,2324,10540,421,525,450,-0.156250,0.941406,0.046875,14.560000,75.040001,-1.120000,-0.112128,-0.214912,-0.140160,,0,0,0,0,0,,,,,,,,,-63,17:33:30.321,
,,2325,10560,422,523,446,-0.156250,0.941406,0.046875,14.560000,75.040001,-14.560000,-0.112128,-0.214912,-0.140160,,0,0,0,0,0,,,,,,,,,-63,17:33:30.322,
,,2326,10580,421,522,441,-0.179688,1.007812,0.171875,4.480000,10.080000,-14.560000,-0.112128,-0.214912,-0.140160,,0,0,0,0,0,,,,,,,,,-63,17:33:30.350,
,,2327,10600,421,521,436,-0.179688,1.007812,0.171875,4.480000,10.080000,-14.560000,-0.112128,-0.214912,-0.140160,,0,0,0,0,0,,,,,,,,,-63,17:33:30.351,
,,2328,10620,419,521,428,-0.179688,1.007812,0.171875,4.480000,10.080000,-14.560000,-0.112128,-0.214912,-0.140160,,0,0,0,0,0,,,,,,,,,-63,17:33:30.352,
,,2329,10640,421,519,423,-0.261719,0.976562,0.046875,7.840000,-1.120000,-4.480000,-0.112128,-0.093440,0.112128,,0,0,0,0,0,,,,,,,,,-63,17:33:30.382,
,,2330,10660,421,519,417,-0.261719,0.976562,0.046875,7.840000,-1.120000,-4.480000,-0.308352,-0.093440,0.112128,,0,0,0,0,0,,,,,,,,,-63,17:33:30.382,
,,2331,10680,419,518,412,-0.261719,0.976562,0.046875,7.840000,-1.120000,-4.480000,-0.308352,-0.093440,0.112128,,0,0,0,0,0,,,,,,,,,-63,17:33:30.414,
,,2332,10700,420,517,407,-0.261719,0.976562,0.046875,7.840000,-1.120000,-4.480000,-0.308352,-0.093440,0.112128,,0,0,0,0,0,,,,,,,,,-63,17:33:30.440,
,,2333,10720,419,517,404,-0.097656,0.980469,0.058594,2.240000,-7.840000,-5.600000,-0.308352,-0.093440,0.112128,,0,0,0,0,0,,,,,,,,,-63,17:33:30.441,
,,2334,10740,419,516,403,-0.097656,0.980469,0.058594,2.240000,-7.840000,-5.600000,-0.308352,-0.093440,0.112128,,0,0,0,0,0,,,,,,,,,-63,17:33:30.470,
,,2335,10760,418,513,402,-0.097656,0.980469,0.058594,2.240000,-7.840000,-5.600000,-0.308352,-0.093440,0.112128,,0,0,0,0,0,,,,,,,,,-63,17:33:30.500,
,,2336,10780,418,512,401,-0.097656,0.980469,0.058594,2.240000,-7.840000,-5.600000,-0.308352,-0.093440,0.112128,,0,0,0,0,0,,,,,,,,,-63,17:33:30.501,
,,2337,10800,416,511,401,-0.003906,0.972656,0.093750,1.120000,-8.960000,-6.720000,-0.308352,-0.093440,0.112128,,0,0,0,0,0,,,,,,,,,-63,17:33:30.531,
,,2338,10820,417,508,399,-0.003906,0.972656,0.093750,1.120000,-8.960000,-6.720000,-0.308352,-0.093440,0.112128,,0,0,0,0,0,,,,,,,,,-63,17:33:30.564,
,,2339,10840,416,508,400,-0.003906,0.972656,0.093750,1.120000,-8.960000,-6.720000,-0.308352,-0.093440,0.112128,,0,0,0,0,0,,,,,,,,,-63,17:33:30.564,
,,2340,10860,416,506,401,-0.003906,0.972656,0.093750,1.120000,-8.960000,-6.720000,-0.308352,-0.093440,0.112128,,0,0,0,0,0,,,,,,,,,-63,17:33:30.590,
,,2341,10880,414,502,401,0.105469,0.984375,-0.003906,3.360000,-4.480000,-7.840000,-0.308352,-0.093440,0.112128,,0,0,0,0,0,,,,,,,,,-63,17:33:30.621,
,,2342,10900,415,501,401,0.105469,0.984375,-0.003906,3.360000,-4.480000,-7.840000,-0.308352,-0.093440,0.112128,,0,0,0,0,0,,,,,,,,,-63,17:33:30.621,
,,2343,10920,415,501,402,0.105469,0.984375,-0.003906,3.360000,-4.480000,-7.840000,-0.308352,-0.093440,0.112128,,0,0,0,0,0,,,,,,,,,-63,17:33:30.650,
,,2344,10940,414,498,402,0.105469,0.984375,-0.003906,3.360000,-4.480000,-3.360000,-0.308352,-0.093440,0.112128,,0,0,0,0,0,,,,,,,,,-63,17:33:30.681,
,,2345,10960,414,498,401,0.070312,0.984375,0.023438,3.360000,-3.360000,-3.360000,-0.308352,-0.093440,0.112128,,0,0,0,0,0,,,,,,,,,-63,17:33:30.682,
,,2346,10980,413,498,402,0.070312,0.984375,0.023438,3.360000,-3.360000,-3.360000,-0.308352,-0.093440,0.112128,,0,0,0,0,0,,,,,,,,,-63,17:33:30.715,
,,2347,11000,413,498,400,0.070312,0.984375,0.023438,3.360000,-3.360000,-3.360000,-0.308352,-0.093440,0.112128,,0,0,0,0,0,,,,,,,,,-82,17:33:30.740,
,,2348,11020,413,498,399,-0.097656,0.976562,0.035156,1.120000,-3.360000,-1.120000,-0.308352,-0.093440,0.112128,,0,0,0,0,0,,,,,,,,,-82,17:33:30.741,
,,2349,11040,413,497,399,-0.097656,0.976562,0.035156,1.120000,-3.360000,-1.120000,-0.308352,-0.093440,0.112128,,0,0,0,0,0,,,,,,,,,-82,17:33:30.771,
,,2350,11060,413,498,399,-0.097656,0.976562,0.035156,1.120000,-3.360000,-1.120000,-0.308352,-0.093440,0.112128,,0,0,0,0,0,,,,,,,,,-82,17:33:30.800,
,,2351,11080,413,499,398,-0.097656,0.976562,0.035156,1.120000,-3.360000,-1.120000,-0.308352,-0.093440,0.112128,,0,0,0,0,0,,,,,,,,,-82,17:33:30.801,
,,2352,11100,414,499,396,-0.058594,0.984375,0.050781,-2.240000,-5.600000,-1.120000,-0.308352,-0.093440,0.112128,,0,0,0,0,0,,,,,,,,,-82,17:33:30.832,
,,2353,11120,414,500,395,-0.058594,0.984375,0.050781,-2.240000,-5.600000,-1.120000,-0.308352,-0.093440,0.112128,,0,0,0,0,0,,,,,,,,,-82,17:33:30.865,
,,2354,11140,415,500,394,-0.058594,0.984375,0.050781,-2.240000,-5.600000,-1.120000,-0.308352,-0.093440,0.112128,,0,0,0,0,0,,,,,,,,,-82,17:33:30.865,
,,2355,11160,416,500,394,-0.082031,0.972656,0.070312,-2.240000,-4.480000,-2.240000,-0.308352,-0.093440,0.112128,,0,0,0,0,0,,,,,,,,,-82,17:33:30.890,
,,2356,11180,416,502,394,-0.082031,0.972656,0.070312,-2.240000,-4.480000,-2.240000,-0.308352,-0.093440,0.112128,,0,0,0,0,0,,,,,,,,,-82,17:33:30.920,
,,2357,11200,414,503,394,-0.082031,0.972656,0.070312,-2.240000,-4.480000,-2.240000,-0.308352,-0.093440,0.112128,,0,0,0,0,0,,,,,,,,,-82,17:33:30.921,
,,2358,11220,413,503,394,-0.082031,0.972656,0.070312,-2.240000,-4.480000,-2.240000,-0.308352,-0.093440,0.112128,,0,0,0,0,0,,,,,,,,,-82,17:33:30.950,
,,2359,11240,416,501,394,-0.304688,0.964844,0.109375,-1.120000,-3.360000,-3.360000,-0.308352,-0.093440,0.112128,,0,0,0,0,0,,,,,,,,,-82,17:33:30.982,
,,2360,11260,415,502,395,-0.304688,0.964844,0.109375,-1.120000,-3.360000,-3.360000,-0.308352,-0.093440,0.112128,,0,0,0,0,0,,,,,,,,,-82,17:33:31.040,
,,2361,11280,415,504,396,-0.304688,0.964844,0.109375,-1.120000,-3.360000,-3.360000,-0.308352,-0.093440,0.112128,,0,0,0,0,0,,,,,,,,,-82,17:33:31.041,
,,2362,11300,414,501,397,-0.304688,0.964844,0.109375,-1.120000,-3.360000,-3.360000,-0.308352,-0.093440,0.112128,,0,0,0,0,0,,,,,,,,,-82,17:33:31.041,
,,2363,11320,415,501,399,-0.136719,0.972656,0.089844,-1.120000,-5.600000,-6.720000,-0.308352,-0.093440,0.112128,,0,0,0,0,0,,,,,,,,,-82,17:33:31.042,
,,2364,11340,415,499,400,-0.136719,0.972656,0.089844,-1.120000,-5.600000,-6.720000,-0.308352,-0.093440,0.112128,,0,0,0,0,0,,,,,,,,,-82,17:33:31.072,
,,2365,11360,414,499,405,-0.136719,0.972656,0.089844,-1.120000,-5.600000,-6.720000,-0.308352,-0.093440,0.112128,,0,0,0,0,0,,,,,,,,,-82,17:33:31.100,
,,2366,11380,413,497,409,-0.136719,0.972656,0.089844,-1.120000,-5.600000,-6.720000,-0.308352,-0.093440,0.112128,,0,0,0,0,0,,,,,,,,,-82,17:33:31.101,
,,2367,11400,413,497,412,0.039062,0.984375,0.027344,0.000000,-5.600000,-7.840000,-0.308352,-0.093440,0.112128,,0,0,0,0,0,,,,,,,,,-82,17:33:31.133,
,,2368,11420,414,498,416,0.039062,0.984375,0.027344,0.000000,-5.600000,-7.840000,-0.308352,-0.093440,0.112128,,0,0,0,0,0,,,,,,,,,-82,17:33:31.165,
,,2369,11440,414,495,419,0.039062,0.984375,0.027344,0.000000,-5.600000,-7.840000,-0.308352,-0.093440,0.112128,,0,0,0,0,0,,,,,,,,,-82,17:33:31.165,
,,2370,11460,413,495,421,0.039062,0.984375,0.027344,0.000000,-5.600000,-7.840000,-0.308352,-0.093440,0.112128,,0,0,0,0,0,,,,,,,,,-82,17:33:31.190,
,,2371,11480,414,493,422,-0.082031,0.972656,0.050781,0.000000,-5.600000,-6.720000,-0.308352,-0.093440,0.112128,,0,0,0,0,0,,,,,,,,,-82,17:33:31.220,
,,2372,11500,413,491,424,-0.082031,0.972656,0.050781,0.000000,-5.600000,-6.720000,-0.308352,-0.093440,0.112128,,0,0,0,0,0,,,,,,,,,-82,17:33:31.220,
,,2373,11520,411,491,423,-0.082031,0.972656,0.050781,0.000000,-5.600000,-6.720000,-0.308352,-0.093440,0.112128,,0,0,0,0,0,,,,,,,,,-82,17:33:31.285,
,,2374,11540,412,490,425,-0.082031,0.972656,0.050781,0.000000,-5.600000,-6.720000,-0.308352,-0.093440,0.112128,,0,0,0,0,0,,,,,,,,,-82,17:33:31.310,
,,2375,11560,412,487,425,-0.093750,0.972656,0.078125,-1.120000,-6.720000,-5.600000,-0.308352,-0.093440,0.112128,,0,0,0,0,0,,,,,,,,,-82,17:33:31.311,
,,2376,11580,411,487,426,-0.093750,0.972656,0.078125,-1.120000,-6.720000,-5.600000,-0.308352,-0.093440,0.112128,,0,0,0,0,0,,,,,,,,,-82,17:33:31.311,
,,2377,11600,411,485,426,-0.093750,0.972656,0.078125,-1.120000,-6.720000,-5.600000,-0.308352,-0.093440,0.112128,,0,0,0,0,0,,,,,,,,,-82,17:33:31.340,
,,2378,11620,411,486,426,-0.074219,0.976562,0.078125,1.120000,-5.600000,-4.480000,-0.308352,-0.093440,0.112128,,0,0,0,0,0,,,,,,,,,-82,17:33:31.341,
,,2379,11640,411,484,427,-0.074219,0.976562,0.078125,1.120000,-5.600000,-4.480000,-0.308352,-0.093440,0.112128,,0,0,0,0,0,,,,,,,,,-82,17:33:31.370,
,,2380,11660,412,485,428,-0.074219,0.976562,0.078125,1.120000,-5.600000,-4.480000,-0.308352,-0.093440,0.112128,,0,0,0,0,0,,,,,,,,,-82,17:33:31.401,
,,2381,11680,410,482,428,-0.074219,0.976562,0.078125,1.120000,-5.600000,-4.480000,-0.308352,-0.093440,0.112128,,0,0,0,0,0,,,,,,,,,-82,17:33:31.402,
,,2382,11700,411,481,429,-0.023438,0.984375,0.011719,2.240000,-5.600000,-5.600000,-0.308352,-0.093440,0.112128,,0,0,0,0,0,,,,,,,,,-82,17:33:31.460,
,,2383,11720,411,480,430,-0.023438,0.984375,0.011719,2.240000,-5.600000,-5.600000,-0.308352,-0.093440,0.112128,,0,0,0,0,0,,,,,,,,,-82,17:33:31.460,
,,2384,11740,411,480,429,-0.023438,0.984375,0.011719,2.240000,-5.600000,-5.600000,-0.308352,-0.093440,0.112128,,0,0,0,0,0,,,,,,,,,-82,17:33:31.461,
,,2385,11760,409,477,431,-0.074219,0.976562,0.054688,-1.120000,-8.960000,-4.480000,-0.308352,-0.093440,0.112128,,0,0,0,0,0,,,,,,,,,-82,17:33:31.492,
,,2386,11780,411,476,430,-0.074219,0.976562,0.054688,-1.120000,-8.960000,-4.480000,-0.308352,-0.093440,0.112128,,0,0,0,0,0,,,,,,,,,-82,17:33:31.520,
,,2387,11800,411,474,430,-0.074219,0.976562,0.054688,-1.120000,-8.960000,-4.480000,-0.308352,-0.093440,0.112128,,0,0,0,0,0,,,,,,,,,-82,17:33:31.521,
,,2388,11820,409,473,431,-0.074219,0.976562,0.054688,-1.120000,-8.960000,-4.480000,-0.308352,-0.093440,0.112128,,0,0,0,0,0,,,,,,,,,-82,17:33:31.550,
,,2389,11840,409,471,431,-0.128906,0.968750,0.089844,-1.120000,-8.960000,-4.480000,-0.308352,-0.093440,0.112128,,0,0,0,0,0,,,,,,,,,-82,17:33:31.641,
,,2390,11860,409,469,432,-0.128906,0.968750,0.089844,-1.120000,-8.960000,-4.480000,-0.308352,-0.093440,0.112128,,0,0,0,0,0,,,,,,,,,-82,17:33:31.641,
,,2391,11880,409,468,431,-0.128906,0.968750,0.089844,-1.120000,-8.960000,-4.480000,-0.308352,-0.093440,0.112128,,0,0,0,0,0,,,,,,,,,-82,17:33:31.642,
,,2392,11900,410,468,432,-0.128906,0.968750,0.089844,-1.120000,-8.960000,-4.480000,-0.308352,-0.093440,0.112128,,0,0,0,0,0,,,,,,,,,-82,17:33:31.672,
,,2393,11920,409,466,432,-0.062500,0.976562,0.074219,1.120000,-6.720000,-4.480000,-0.308352,-0.093440,0.112128,,0,0,0,0,0,,,,,,,,,-82,17:33:31.672,
,,2394,11940,408,465,432,-0.062500,0.976562,0.074219,1.120000,-6.720000,-4.480000,-0.308352,-0.093440,0.112128,,0,0,0,0,0,,,,,,,,,-82,17:33:31.673,
,,2395,11960,410,465,433,-0.062500,0.976562,0.074219,1.120000,-6.720000,-4.480000,-0.308352,-0.093440,0.112128,,0,0,0,0,0,,,,,,,,,-82,17:33:31.760,
,,2396,11980,408,464,433,-0.062500,0.976562,0.074219,1.120000,-6.720000,-4.480000,-0.308352,-0.093440,0.112128,,0,0,0,0,0,,,,,,,,,-82,17:33:31.793,
,,2397,12000,409,463,433,0.011719,0.984375,0.007812,2.240000,-5.600000,-4.480000,-0.308352,-0.093440,0.112128,,0,0,0,0,0,,,,,,,,,-82,17:33:31.794,
,,2398,12020,408,462,433,0.011719,0.984375,0.007812,2.240000,-5.600000,-4.480000,-0.308352,-0.093440,0.112128,,0,0,0,0,0,,,,,,,,,-82,17:33:31.794,
,,2399,12040,408,463,433,0.011719,0.984375,0.007812,2.240000,-5.600000,-4.480000,-0.308352,-0.093440,0.112128,,0,0,0,0,0,,,,,,,,,-82,17:33:31.794,
,,2400,12060,409,462,433,0.011719,0.984375,0.007812,2.240000,-5.600000,-4.480000,-0.308352,-0.093440,0.112128,,0,0,0,0,0,,,,,,,,,-82,17:33:31.795,
,,2401,12080,408,461,434,-0.046875,0.976562,0.050781,-1.120000,-5.600000,-3.360000,-0.308352,-0.093440,0.112128,,0,0,0,0,0,,,,,,,,,-82,17:33:31.820,
,,2402,12100,407,461,434,-0.046875,0.976562,0.050781,-1.120000,-5.600000,-3.360000,-0.308352,-0.093440,0.112128,,0,0,0,0,0,,,,,,,,,-82,17:33:31.821,
,,2403,12120,407,461,433,-0.046875,0.976562,0.050781,-1.120000,-5.600000,-3.360000,-0.308352,-0.093440,0.112128,,0,0,0,0,0,,,,,,,,,-82,17:33:31.850,
,,2404,12140,408,459,434,-0.152344,0.972656,0.078125,-2.240000,-4.480000,-3.360000,-0.308352,-0.093440,0.112128,,0,0,0,0,0,,,,,,,,,-82,17:33:31.972,
,,2405,12160,408,460,432,-0.152344,0.972656,0.078125,-2.240000,-4.480000,-3.360000,-0.308352,-0.093440,0.112128,,0,0,0,0,0,,,,,,,,,-82,17:33:31.973,
,,2406,12180,408,460,432,-0.152344,0.972656,0.078125,-2.240000,-4.480000,-3.360000,-0.308352,-0.093440,0.112128,,0,0,0,0,0,,,,,,,,,-82,17:33:31.973,
,,2407,12200,407,460,434,-0.152344,0.972656,0.078125,-2.240000,-4.480000,-3.360000,-0.308352,-0.093440,0.112128,,0,0,0,0,0,,,,,,,,,-82,17:33:31.973,
,,2408,12220,409,461,433,-0.113281,0.976562,0.070312,-3.360000,-3.360000,-3.360000,-0.308352,-0.093440,0.112128,,0,0,0,0,0,,,,,,,,,-82,17:33:31.974,
,,2409,12240,408,461,433,-0.113281,0.976562,0.070312,-3.360000,-3.360000,-3.360000,-0.327040,-0.056064,0.102784,,0,0,0,0,0,,,,,,,,,-82,17:33:31.974,
,,2410,12260,408,459,432,-0.113281,0.976562,0.070312,-3.360000,-3.360000,-3.360000,-0.327040,-0.056064,0.102784,,0,0,0,0,0,,,,,,,,,-82,17:33:32.001,
,,2411,12280,408,461,432,-0.113281,0.976562,0.070312,-3.360000,-3.360000,-3.360000,-0.327040,-0.056064,0.102784,,0,0,0,0,0,,,,,,,,,-82,17:33:32.002,
,,2412,12300,408,461,431,0.011719,0.980469,0.054688,-3.360000,-5.600000,-3.360000,-0.327040,-0.056064,0.102784,,0,0,0,0,0,,,,,,,,,-82,17:33:32.035,
,,2413,12320,408,461,432,0.011719,0.980469,0.054688,-3.360000,-5.600000,-3.360000,-0.327040,-0.056064,0.102784,,0,0,0,0,0,,,,,,,,,-82,17:33:32.120,
,,2414,12340,409,461,430,0.011719,0.980469,0.054688,-3.360000,-5.600000,-3.360000,-0.327040,-0.056064,0.102784,,0,0,0,0,0,,,,,,,,,-82,17:33:32.120,
,,2415,12360,407,462,429,-0.019531,0.980469,0.062500,-2.240000,-4.480000,-2.240000,-0.327040,-0.056064,0.102784,,0,0,0,0,0,,,,,,,,,-82,17:33:32.121,
,,2416,12380,408,460,430,-0.019531,0.980469,0.062500,-2.240000,-4.480000,-2.240000,-0.327040,-0.056064,0.102784,,0,0,0,0,0,,,,,,,,,-82,17:33:32.121,
,,2417,12400,409,461,429,-0.019531,0.980469,0.062500,-2.240000,-4.480000,-2.240000,-0.327040,-0.056064,0.102784,,0,0,0,0,0,,,,,,,,,-82,17:33:32.122,
,,2418,12420,410,461,430,-0.019531,0.980469,0.062500,-2.240000,-4.480000,-2.240000,-0.327040,-0.056064,0.102784,,0,0,0,0,0,,,,,,,,,-82,17:33:32.186,
,,2419,12440,408,462,429,-0.121094,0.976562,0.070312,-3.360000,-2.240000,-2.240000,-0.327040,-0.056064,0.102784,,0,0,0,0,0,,,,,,,,,-82,17:33:32.186,
,,2420,12460,409,463,429,-0.121094,0.976562,0.070312,-3.360000,-2.240000,-2.240000,-0.327040,-0.056064,0.102784,,0,0,0,0,0,,,,,,,,,-82,17:33:32.187,
,,2421,12480,409,464,429,-0.121094,0.976562,0.070312,-3.360000,-2.240000,-2.240000,-0.327040,-0.056064,0.102784,,0,0,0,0,0,,,,,,,,,-82,17:33:32.210,
,,2422,12500,411,465,428,-0.121094,0.976562,0.070312,-3.360000,-2.240000,-2.240000,-0.327040,-0.056064,0.102784,,0,0,0,0,0,,,,,,,,,-82,17:33:32.240,
,,2423,12520,410,469,426,-0.105469,0.972656,0.105469,-6.720000,-4.480000,-1.120000,-0.327040,-0.056064,0.102784,,0,0,0,0,0,,,,,,,,,-82,17:33:32.241,
,,2424,12540,411,470,427,-0.105469,0.972656,0.105469,-6.720000,-4.480000,-1.120000,-0.327040,-0.056064,0.102784,,0,0,0,0,0,,,,,,,,,-82,17:33:32.304,
,,2425,12560,413,472,426,-0.105469,0.972656,0.105469,-6.720000,-4.480000,-1.120000,-0.327040,-0.056064,0.102784,,0,0,0,0,0,,,,,,,,,-82,17:33:32.304,
,,2426,12580,411,472,427,-0.054688,0.972656,0.101562,-7.840000,-4.480000,-2.240000,-0.327040,-0.056064,0.102784,,0,0,0,0,0,,,,,,,,,-82,17:33:32.305,
,,2427,12600,412,473,429,-0.054688,0.972656,0.101562,-7.840000,-4.480000,-2.240000,-0.327040,-0.056064,0.102784,,0,0,0,0,0,,,,,,,,,-82,17:33:32.361,
,,2428,12620,411,473,427,-0.054688,0.972656,0.101562,-7.840000,-4.480000,-2.240000,-0.327040,-0.056064,0.102784,,0,0,0,0,0,,,,,,,,,-82,17:33:32.361,
,,2429,12640,411,474,428,-0.054688,0.972656,0.101562,-7.840000,-4.480000,-2.240000,-0.327040,-0.056064,0.102784,,0,0,0,0,0,,,,,,,,,-82,17:33:32.362,
,,2430,12660,413,476,431,-0.085938,0.972656,0.156250,-6.720000,-4.480000,-3.360000,-0.327040,-0.056064,0.102784,,0,0,0,0,0,,,,,,,,,-82,17:33:32.390,
,,2431,12680,412,476,440,-0.085938,0.972656,0.156250,-6.720000,-4.480000,-3.360000,-0.327040,-0.056064,0.102784,,0,0,0,0,0,,,,,,,,,-82,17:33:32.420,
,,2432,12700,411,478,458,-0.085938,0.972656,0.156250,-6.720000,-4.480000,-3.360000,-0.327040,-0.056064,0.102784,,0,0,0,0,0,,,,,,,,,-82,17:33:32.421,
,,2433,12720,412,481,478,-0.085938,0.972656,0.156250,-6.720000,-4.480000,-3.360000,-0.327040,-0.056064,0.102784,,0,0,0,0,0,,,,,,,,,-82,17:33:32.452,
,,2434,12740,412,489,494,0.035156,1.167969,0.140625,-11.200000,-2.240000,-6.720000,-0.327040,-0.056064,0.102784,,0,0,0,0,0,,,,,,,,,-82,17:33:32.485,
,,2435,12760,413,498,501,0.035156,1.167969,0.140625,-11.200000,-2.240000,-6.720000,-0.327040,-0.056064,0.102784,,0,0,0,0,0,,,,,,,,,-82,17:33:32.485,
,,2436,12780,413,509,506,0.035156,1.167969,0.140625,-11.200000,-2.240000,-6.720000,-0.327040,-0.056064,0.102784,,0,0,0,0,0,,,,,,,,,-82,17:33:32.510,
,,2437,12800,417,517,508,0.035156,1.167969,0.140625,-11.200000,-2.240000,-6.720000,-0.327040,-0.056064,0.102784,,0,0,0,0,0,,,,,,,,,-82,17:33:32.570,
,,2438,12820,418,522,509,-0.367188,1.792969,0.054688,-26.880001,-4.480000,-40.320000,-0.327040,-0.056064,0.102784,,0,0,0,0,0,,,,,,,,,-82,17:33:32.571,
,,2439,12840,420,527,509,-0.367188,1.792969,0.054688,-26.880001,-4.480000,-40.320000,-0.327040,-0.056064,0.102784,,0,0,0,0,0,,,,,,,,,-82,17:33:32.571,
,,2440,12860,422,531,509,-0.367188,1.792969,0.054688,-26.880001,-4.480000,-40.320000,-0.327040,-0.056064,0.102784,,0,0,0,0,0,,,,,,,,,-82,17:33:32.602,
,,2441,12880,423,533,511,-0.367188,1.792969,0.054688,-26.880001,-4.480000,-40.320000,-0.327040,-0.056064,0.102784,,0,0,0,0,0,,,,,,,,,-82,17:33:32.603,
,,2442,12900,424,535,509,-0.066406,1.484375,0.207031,-33.599998,-38.080002,-90.720001,-0.327040,-0.056064,0.102784,,0,0,0,0,0,,,,,,,,,-82,17:33:32.636,
,,2443,12920,426,535,509,-0.066406,1.484375,0.207031,-33.599998,-38.080002,-90.720001,-0.327040,-0.056064,0.102784,,0,0,0,0,0,,,,,,,,,-82,17:33:32.660,
,,2444,12940,426,537,509,-0.066406,1.484375,0.207031,-33.599998,-38.080002,-90.720001,-0.327040,-0.056064,0.102784,,0,0,0,0,0,,,,,,,,,-82,17:33:32.661,
,,2445,12960,428,537,509,0.023438,0.367188,0.203125,-12.320000,2.240000,-100.800003,-0.327040,-0.056064,0.102784,,0,0,0,0,0,,,,,,,,,-82,17:33:32.690,
,,2446,12980,427,538,509,0.023438,0.367188,0.203125,-12.320000,2.240000,-100.800003,-0.327040,-0.056064,0.102784,,0,0,0,0,0,,,,,,,,,-82,17:33:32.720,
,,2447,13000,429,539,507,0.023438,0.367188,0.203125,-12.320000,2.240000,-100.800003,-0.327040,-0.056064,0.102784,,0,0,0,0,0,,,,,,,,,-82,17:33:32.721,
,,2448,13020,429,539,508,0.023438,0.367188,0.203125,-12.320000,2.240000,-100.800003,-0.327040,-0.056064,0.102784,,0,0,0,0,0,,,,,,,,,-82,17:33:32.752,
,,2449,13040,428,539,508,0.078125,-0.230469,0.226562,10.080000,23.520000,-32.480000,-0.327040,-0.056064,0.102784,,0,0,0,0,0,,,,,,,,,-82,17:33:32.840,
,,2450,13060,428,539,508,0.078125,-0.230469,0.226562,10.080000,23.520000,-32.480000,-0.327040,-0.056064,0.102784,,0,0,0,0,0,,,,,,,,,-82,17:33:32.841,
,,2451,13080,429,540,508,0.078125,-0.230469,0.226562,10.080000,23.520000,-32.480000,-0.327040,-0.056064,0.102784,,0,0,0,0,0,,,,,,,,,-82,17:33:32.870,
,,2452,13100,428,540,505,0.078125,-0.230469,0.226562,10.080000,23.520000,-32.480000,-0.327040,-0.056064,0.102784,,0,0,0,0,0,,,,,,,,,-82,17:33:32.870,
,,2453,13120,429,541,506,-0.179688,-0.089844,0.152344,8.960000,21.280001,49.279999,-0.327040,-0.056064,0.102784,,0,0,0,0,0,,,,,,,,,-82,17:33:32.871,
,,2454,13140,429,540,506,-0.179688,-0.089844,0.152344,8.960000,21.280001,49.279999,-0.327040,-0.056064,0.102784,,0,0,0,0,0,,,,,,,,,-82,17:33:32.871,
,,2455,13160,430,542,506,-0.179688,-0.089844,0.152344,8.960000,21.280001,49.279999,-0.327040,-0.056064,0.102784,,0,0,0,0,0,,,,,,,,,-82,17:33:32.903,
,,2456,13180,429,541,506,-0.179688,-0.089844,0.152344,8.960000,21.280001,49.279999,-0.327040,-0.056064,0.102784,,0,0,0,0,0,,,,,,,,,-82,17:33:32.904,
,,2457,13200,430,541,508,-0.199219,0.472656,0.121094,11.200000,-6.720000,101.919998,-0.327040,-0.056064,0.102784,,0,0,0,0,0,,,,,,,,,-82,17:33:32.930,
,,2458,13220,430,542,507,-0.199219,0.472656,0.121094,11.200000,-6.720000,101.919998,-0.327040,-0.056064,0.102784,,0,0,0,0,0,,,,,,,,,-82,17:33:32.960,
,,2459,13240,431,539,454,-0.199219,0.472656,0.121094,11.200000,-6.720000,101.919998,-0.327040,-0.056064,0.102784,,0,0,0,0,0,,,,,,,,,-82,17:33:32.961,
,,2460,13260,434,537,423,0.054688,0.828125,0.066406,24.639999,-24.639999,92.959999,-0.327040,-0.056064,0.102784,,0,0,0,0,0,,,,,,,,,-82,17:33:32.990,
,,2461,13280,432,532,434,0.054688,0.828125,0.066406,24.639999,-24.639999,92.959999,-0.327040,-0.056064,0.102784,,0,0,0,0,0,,,,,,,,,-82,17:33:33.020,
,,2462,13300,430,523,442,0.054688,0.828125,0.066406,24.639999,-24.639999,92.959999,-0.327040,-0.056064,0.102784,,0,0,0,0,0,,,,,,,,,-82,17:33:33.021,
,,2463,13320,424,515,438,0.054688,0.828125,0.066406,24.639999,-24.639999,92.959999,-0.327040,-0.056064,0.102784,,0,0,0,0,0,,,,,,,,,-82,17:33:33.053,
,,2464,13340,420,510,431,0.632812,0.917969,0.066406,22.400000,-14.560000,-33.599998,-0.327040,-0.056064,0.102784,,0,0,0,0,0,,,,,,,,,-82,17:33:33.080,
,,2465,13360,418,505,427,0.632812,0.917969,0.066406,22.400000,-14.560000,-33.599998,-0.327040,-0.056064,0.102784,,0,0,0,0,0,,,,,,,,,-82,17:33:33.081,
,,2466,13380,416,501,424,0.632812,0.917969,0.066406,22.400000,-14.560000,-33.599998,-0.327040,-0.056064,0.102784,,0,0,0,0,0,,,,,,,,,-82,17:33:33.111,
,,2467,13400,415,498,423,0.632812,0.917969,0.066406,22.400000,-14.560000,-33.599998,-0.327040,-0.056064,0.102784,,0,0,0,0,0,,,,,,,,,-82,17:33:33.143,
,,2468,13420,413,495,424,0.070312,1.007812,0.031250,17.920000,4.480000,-16.799999,-0.327040,-0.056064,0.102784,,0,0,0,0,0,,,,,,,,,-82,17:33:33.144,
,,2469,13440,412,495,425,0.070312,1.007812,0.031250,17.920000,4.480000,-16.799999,-0.327040,-0.056064,0.102784,,0,0,0,0,0,,,,,,,,,-82,17:33:33.171,
,,2470,13460,413,491,428,0.070312,1.007812,0.031250,17.920000,4.480000,-16.799999,-0.327040,-0.056064,0.102784,,0,0,0,0,0,,,,,,,,,-82,17:33:33.203,
,,2471,13480,412,490,430,0.070312,1.007812,0.031250,17.920000,4.480000,-16.799999,-0.327040,-0.056064,0.102784,,0,0,0,0,0,,,,,,,,,-82,17:33:33.203,
,,2472,13500,409,487,434,0.023438,0.980469,0.000000,16.799999,-2.240000,-6.720000,-0.327040,-0.056064,0.102784,,0,0,0,0,0,,,,,,,,,-82,17:33:33.228,
,,2473,13520,409,484,435,0.023438,0.980469,0.000000,16.799999,-2.240000,-6.720000,-0.327040,-0.056064,0.102784,,0,0,0,0,0,,,,,,,,,-82,17:33:33.261,
,,2474,13540,407,481,434,0.023438,0.980469,0.000000,16.799999,-2.240000,-6.720000,-0.327040,-0.056064,0.102784,,0,0,0,0,0,,,,,,,,,-82,17:33:33.261,
,,2475,13560,405,480,435,-0.082031,0.964844,-0.011719,13.440001,-5.600000,-8.960000,-0.327040,-0.056064,0.102784,,0,0,0,0,0,,,,,,,,,-82,17:33:33.290,
,,2476,13580,406,475,433,-0.082031,0.964844,-0.011719,13.440001,-5.600000,-8.960000,-0.327040,-0.056064,0.102784,,0,0,0,0,0,,,,,,,,,-82,17:33:33.320,
,,2477,13600,406,475,430,-0.082031,0.964844,-0.011719,13.440001,-5.600000,-8.960000,-0.327040,-0.056064,0.102784,,0,0,0,0,0,,,,,,,,,-82,17:33:33.321,
,,2478,13620,404,474,427,-0.082031,0.964844,-0.011719,13.440001,-5.600000,-8.960000,-0.327040,-0.056064,0.102784,,0,0,0,0,0,,,,,,,,,-82,17:33:33.353,
,,2479,13640,403,472,421,-0.144531,0.980469,0.003906,7.840000,-6.720000,-7.840000,-0.327040,-0.056064,0.102784,,0,0,0,0,0,,,,,,,,,-82,17:33:33.380,
,,2480,13660,401,468,419,-0.144531,0.980469,0.003906,7.840000,-6.720000,-7.840000,-0.327040,-0.056064,0.102784,,0,0,0,0,0,,,,,,,,,-82,17:33:33.381,
,,2481,13680,401,467,417,-0.144531,0.980469,0.003906,7.840000,-6.720000,-7.840000,-0.327040,-0.056064,0.102784,,0,0,0,0,0,,,,,,,,,-82,17:33:33.410,
,,2482,13700,398,465,413,-0.144531,0.980469,0.019531,5.600000,-7.840000,-6.720000,-0.327040,-0.056064,0.102784,,0,0,0,0,0,,,,,,,,,-82,17:33:33.440,
,,2483,13720,399,463,413,-0.003906,0.988281,0.019531,5.600000,-7.840000,-6.720000,-0.327040,-0.056064,0.102784,,0,0,0,0,0,,,,,,,,,-82,17:33:33.441,
,,2484,13740,398,463,411,-0.003906,0.988281,0.019531,5.600000,-7.840000,-6.720000,-0.327040,-0.056064,0.102784,,0,0,0,0,0,,,,,,,,,-82,17:33:33.472,
,,2485,13760,399,461,410,-0.003906,0.988281,0.019531,5.600000,-7.840000,-6.720000,-0.327040,-0.056064,0.102784,,0,0,0,0,0,,,,,,,,,-82,17:33:33.505,
,,2486,13780,395,462,407,-0.062500,0.972656,0.019531,5.600000,-2.240000,-4.480000,-0.327040,-0.056064,0.102784,,0,0,0,0,0,,,,,,,,,-82,17:33:33.505,
,,2487,13800,396,462,406,-0.062500,0.972656,0.019531,5.600000,-2.240000,-4.480000,-0.327040,-0.056064,0.102784,,0,0,0,0,0,,,,,,,,,-82,17:33:33.530,
,,2488,13820,396,463,404,-0.062500,0.972656,0.019531,5.600000,-2.240000,-4.480000,-0.345728,-0.112128,0.112128,,0,0,0,0,0,,,,,,,,,-82,17:33:33.560,
,,2489,13840,397,462,401,-0.062500,0.972656,0.019531,5.600000,-2.240000,-4.480000,-0.345728,-0.112128,0.112128,,0,0,0,0,0,,,,,,,,,-82,17:33:33.561,
,,2490,13860,398,462,398,-0.203125,0.972656,-0.023438,5.600000,-2.240000,-3.360000,-0.345728,-0.112128,0.112128,,0,0,0,0,0,,,,,,,,,-82,17:33:33.590,
,,2491,13880,397,461,395,-0.203125,0.972656,-0.023438,5.600000,-2.240000,-3.360000,-0.345728,-0.112128,0.112128,,0,0,0,0,0,,,,,,,,,-82,17:33:33.621,
,,2492,13900,397,463,393,-0.203125,0.972656,-0.023438,5.600000,-2.240000,-3.360000,-0.345728,-0.112128,0.112128,,0,0,0,0,0,,,,,,,,,-82,17:33:33.622,
,,2493,13920,396,462,391,-0.203125,0.972656,-0.023438,5.600000,-2.240000,-3.360000,-0.345728,-0.112128,0.112128,,0,0,0,0,0,,,,,,,,,-82,17:33:33.654,
,,2494,13940,397,460,388,-0.085938,0.980469,-0.015625,2.240000,-8.960000,-3.360000,-0.345728,-0.112128,0.112128,,0,0,0,0,0,,,,,,,,,-82,17:33:33.680,
,,2495,13960,398,458,387,-0.085938,0.980469,-0.015625,2.240000,-8.960000,-3.360000,-0.345728,-0.112128,0.112128,,0,0,0,0,0,,,,,,,,,-82,17:33:33.681,
,,2496,13980,397,455,385,-0.085938,0.980469,-0.015625,2.240000,-8.960000,-3.360000,-0.345728,-0.112128,0.112128,,0,0,0,0,0,,,,,,,,,-82,17:33:33.710,
,,2497,14000,396,451,383,-0.085938,0.980469,-0.015625,2.240000,-8.960000,-3.360000,-0.345728,-0.112128,0.112128,,0,0,0,0,0,,,,,,,,,-84,17:33:33.740,
,,2498,14020,397,446,380,-0.125000,0.964844,0.097656,4.480000,-11.200000,-2.240000,-0.345728,-0.112128,0.112128,,0,0,0,0,0,,,,,,,,,-84,17:33:33.741,
,,2499,14040,396,442,376,-0.125000,0.964844,0.097656,4.480000,-11.200000,-2.240000,-0.345728,-0.112128,0.112128,,0,0,0,0,0,,,,,,,,,-84,17:33:33.772,
,,2500,14060,398,440,374,-0.125000,0.964844,0.097656,4.480000,-11.200000,-2.240000,-0.345728,-0.112128,0.112128,,0,0,0,0,0,,,,,,,,,-84,17:33:33.804,
,,2501,14080,395,437,373,-0.125000,0.964844,0.097656,4.480000,-11.200000,-2.240000,-0.345728,-0.112128,0.112128,,0,0,0,0,0,,,,,,,,,-84,17:33:33.805,
,,2502,14100,396,433,372,-0.300781,0.976562,-0.089844,10.080000,-3.360000,-4.480000,-0.345728,-0.112128,0.112128,,0,0,0,0,0,,,,,,,,,-84,17:33:33.830,
,,2503,14120,396,432,371,-0.300781,0.976562,-0.089844,10.080000,-3.360000,-4.480000,-0.345728,-0.112128,0.112128,,0,0,0,0,0,,,,,,,,,-84,17:33:33.860,
,,2504,14140,396,430,373,-0.300781,0.976562,-0.089844,10.080000,-3.360000,-4.480000,-0.345728,-0.112128,0.112128,,0,0,0,0,0,,,,,,,,,-84,17:33:33.861,
,,2505,14160,395,430,373,-0.062500,0.980469,-0.003906,-1.120000,-7.840000,-4.480000,-0.345728,-0.112128,0.112128,,0,0,0,0,0,,,,,,,,,-84,17:33:33.890,
,,2506,14180,395,430,377,-0.062500,0.980469,-0.003906,-1.120000,-7.840000,-4.480000,-0.345728,-0.112128,0.112128,,0,0,0,0,0,,,,,,,,,-84,17:33:33.922,
,,2507,14200,394,431,379,-0.062500,0.980469,-0.003906,-1.120000,-7.840000,-4.480000,-0.345728,-0.112128,0.112128,,0,0,0,0,0,,,,,,,,,-84,17:33:33.922,
,,2508,14220,394,431,383,-0.062500,0.980469,-0.003906,-1.120000,-7.840000,-4.480000,-0.345728,-0.112128,0.112128,,0,0,0,0,0,,,,,,,,,-84,17:33:33.979,
,,2509,14240,394,431,387,0.128906,0.996094,-0.078125,-4.480000,-3.360000,-2.240000,-0.345728,-0.112128,0.112128,,0,0,0,0,0,,,,,,,,,-84,17:33:33.980,
,,2510,14260,394,431,388,0.128906,0.996094,-0.078125,-4.480000,-3.360000,-2.240000,-0.345728,-0.112128,0.112128,,0,0,0,0,0,,,,,,,,,-84,17:33:33.980,
,,2511,14280,395,433,389,0.128906,0.996094,-0.078125,-4.480000,-3.360000,-2.240000,-0.345728,-0.112128,0.112128,,0,0,0,0,0,,,,,,,,,-84,17:33:34.011,
,,2512,14300,396,434,388,0.085938,0.984375,-0.050781,-3.360000,-2.240000,1.120000,-0.345728,-0.112128,0.112128,,0,0,0,0,0,,,,,,,,,-84,17:33:34.040,
,,2513,14320,395,436,387,0.085938,0.984375,-0.050781,-3.360000,-2.240000,1.120000,-0.345728,-0.112128,0.112128,,0,0,0,0,0,,,,,,,,,-84,17:33:34.041,
,,2514,14340,396,436,385,0.085938,0.984375,-0.050781,-3.360000,-2.240000,1.120000,-0.345728,-0.112128,0.112128,,0,0,0,0,0,,,,,,,,,-84,17:33:34.072,
,,2515,14360,396,436,385,0.085938,0.984375,-0.050781,-3.360000,-2.240000,1.120000,-0.345728,-0.112128,0.112128,,0,0,0,0,0,,,,,,,,,-84,17:33:34.105,
,,2516,14380,398,437,382,-0.242188,0.957031,0.070312,-5.600000,-4.480000,1.120000,-0.345728,-0.112128,0.112128,,0,0,0,0,0,,,,,,,,,-84,17:33:34.105,
,,2517,14400,399,438,380,-0.242188,0.957031,0.070312,-5.600000,-4.480000,1.120000,-0.345728,-0.112128,0.112128,,0,0,0,0,0,,,,,,,,,-84,17:33:34.130,
,,2518,14420,397,437,376,-0.242188,0.957031,0.070312,-5.600000,-4.480000,1.120000,-0.345728,-0.112128,0.112128,,0,0,0,0,0,,,,,,,,,-84,17:33:34.160,
,,2519,14440,398,437,375,-0.242188,0.957031,0.070312,-5.600000,-4.480000,1.120000,-0.345728,-0.112128,0.112128,,0,0,0,0,0,,,,,,,,,-84,17:33:34.161,
,,2520,14460,398,437,374,-0.066406,0.984375,0.015625,-4.480000,-10.080000,-4.480000,-0.345728,-0.112128,0.112128,,0,0,0,0,0,,,,,,,,,-84,17:33:34.190,
,,2521,14480,398,436,372,-0.066406,0.984375,0.015625,-4.480000,-10.080000,-4.480000,-0.345728,-0.112128,0.112128,,0,0,0,0,0,,,,,,,,,-84,17:33:34.222,
,,2522,14500,397,435,373,-0.066406,0.984375,0.015625,-4.480000,-10.080000,-4.480000,-0.345728,-0.112128,0.112128,,0,0,0,0,0,,,,,,,,,-84,17:33:34.222,
,,2523,14520,396,434,372,-0.066406,0.984375,0.015625,-4.480000,-10.080000,-4.480000,-0.345728,-0.112128,0.112128,,0,0,0,0,0,,,,,,,,,-84,17:33:34.250,
,,2524,14540,397,434,375,-0.109375,0.972656,0.152344,0.000000,-10.080000,-11.200000,-0.345728,-0.112128,0.112128,,0,0,0,0,0,,,,,,,,,-84,17:33:34.280,
,,2525,14560,397,437,374,-0.109375,0.972656,0.152344,0.000000,-10.080000,-11.200000,-0.345728,-0.112128,0.112128,,0,0,0,0,0,,,,,,,,,-84,17:33:34.281,
,,2526,14580,398,443,374,-0.109375,0.972656,0.152344,0.000000,-10.080000,-11.200000,-0.345728,-0.112128,0.112128,,0,0,0,0,0,,,,,,,,,-84,17:33:34.310,
,,2527,14600,400,447,374,-0.109375,0.972656,0.152344,0.000000,-10.080000,-11.200000,-0.345728,-0.112128,0.112128,,0,0,0,0,0,,,,,,,,,-84,17:33:34.340,
,,2528,14620,401,450,375,-0.246094,0.976562,-0.101562,-1.120000,4.480000,-8.960000,-0.345728,-0.112128,0.112128,,0,0,0,0,0,,,,,,,,,-84,17:33:34.341,
,,2529,14640,401,451,378,-0.246094,0.976562,-0.101562,-1.120000,4.480000,-8.960000,-0.345728,-0.112128,0.112128,,0,0,0,0,0,,,,,,,,,-84,17:33:34.373,
,,2530,14660,402,452,381,-0.246094,0.976562,-0.101562,-1.120000,4.480000,-8.960000,-0.345728,-0.112128,0.112128,,0,0,0,0,0,,,,,,,,,-84,17:33:34.399,
,,2531,14680,401,452,384,-0.269531,0.957031,0.039062,-4.480000,-4.480000,-1.120000,-0.345728,-0.112128,0.112128,,0,0,0,0,0,,,,,,,,,-84,17:33:34.400,
,,2532,14700,402,452,383,-0.269531,0.957031,0.039062,-4.480000,-4.480000,-1.120000,-0.345728,-0.112128,0.112128,,0,0,0,0,0,,,,,,,,,-84,17:33:34.430,
,,2533,14720,402,453,386,-0.269531,0.957031,0.039062,-4.480000,-4.480000,-1.120000,-0.345728,-0.112128,0.112128,,0,0,0,0,0,,,,,,,,,-84,17:33:34.460,
,,2534,14740,403,452,383,-0.269531,0.957031,0.039062,-4.480000,-4.480000,-1.120000,-0.345728,-0.112128,0.112128,,0,0,0,0,0,,,,,,,,,-84,17:33:34.491,
,,2535,14760,402,451,384,-0.031250,0.972656,0.062500,-1.120000,-4.480000,-2.240000,-0.345728,-0.112128,0.112128,,0,0,0,0,0,,,,,,,,,-84,17:33:34.491,
,,2536,14780,402,451,382,-0.031250,0.972656,0.062500,-1.120000,-4.480000,-2.240000,-0.345728,-0.112128,0.112128,,0,0,0,0,0,,,,,,,,,-84,17:33:34.523,
,,2537,14800,400,450,382,-0.031250,0.972656,0.062500,-1.120000,-4.480000,-2.240000,-0.345728,-0.112128,0.112128,,0,0,0,0,0,,,,,,,,,-84,17:33:34.523,
,,2538,14820,401,450,382,-0.031250,0.972656,0.062500,-1.120000,-4.480000,-2.240000,-0.345728,-0.112128,0.112128,,0,0,0,0,0,,,,,,,,,-84,17:33:34.550,
,,2539,14840,402,449,382,0.058594,0.988281,-0.039062,4.480000,-2.240000,-5.600000,-0.345728,-0.112128,0.112128,,0,0,0,0,0,,,,,,,,,-84,17:33:34.610,
,,2540,14860,402,449,381,0.058594,0.988281,-0.039062,4.480000,-2.240000,-5.600000,-0.345728,-0.112128,0.112128,,0,0,0,0,0,,,,,,,,,-84,17:33:34.610,
,,2541,14880,402,449,380,0.058594,0.988281,-0.039062,4.480000,-2.240000,-5.600000,-0.345728,-0.112128,0.112128,,0,0,0,0,0,,,,,,,,,-84,17:33:34.611,
,,2542,14900,403,450,381,0.058594,0.988281,-0.039062,2.240000,-2.240000,-4.480000,-0.345728,-0.112128,0.112128,,0,0,0,0,0,,,,,,,,,-84,17:33:34.640,
,,2543,14920,402,449,380,-0.058594,0.984375,-0.011719,2.240000,-2.240000,-4.480000,-0.345728,-0.112128,0.112128,,0,0,0,0,0,,,,,,,,,-84,17:33:34.641,
,,2544,14940,401,449,378,-0.058594,0.984375,-0.011719,2.240000,-2.240000,-4.480000,-0.345728,-0.112128,0.112128,,0,0,0,0,0,,,,,,,,,-84,17:33:34.674,
,,2545,14960,402,450,378,-0.058594,0.984375,-0.011719,2.240000,-2.240000,-4.480000,-0.345728,-0.112128,0.112128,,0,0,0,0,0,,,,,,,,,-84,17:33:34.700,
,,2546,14980,402,450,378,-0.300781,0.964844,-0.003906,-2.240000,-3.360000,-3.360000,-0.345728,-0.112128,0.112128,,0,0,0,0,0,,,,,,,,,-84,17:33:34.701,
,,2547,15000,401,450,375,-0.300781,0.964844,-0.003906,-2.240000,-3.360000,-3.360000,-0.345728,-0.112128,0.112128,,0,0,0,0,0,,,,,,,,,-84,17:33:34.759,
,,2548,15020,402,451,374,-0.300781,0.964844,-0.003906,-2.240000,-3.360000,-3.360000,-0.345728,-0.112128,0.112128,,0,0,0,0,0,,,,,,,,,-84,17:33:34.760,
,,2549,15040,402,453,373,-0.300781,0.964844,-0.003906,-2.240000,-3.360000,-3.360000,-0.345728,-0.112128,0.112128,,0,0,0,0,0,,,,,,,,,-84,17:33:34.760,
,,2550,15060,403,454,374,-0.199219,0.972656,0.027344,-10.080000,-6.720000,-2.240000,-0.345728,-0.112128,0.112128,,0,0,0,0,0,,,,,,,,,-84,17:33:34.826,
,,2551,15080,404,456,373,-0.199219,0.972656,0.027344,-10.080000,-6.720000,-2.240000,-0.345728,-0.112128,0.112128,,0,0,0,0,0,,,,,,,,,-84,17:33:34.827,
,,2552,15100,406,460,374,-0.199219,0.972656,0.027344,-10.080000,-6.720000,-2.240000,-0.345728,-0.112128,0.112128,,0,0,0,0,0,,,,,,,,,-84,17:33:34.827,
,,2553,15120,406,465,375,-0.199219,0.972656,0.027344,-10.080000,-6.720000,-2.240000,-0.345728,-0.112128,0.112128,,0,0,0,0,0,,,,,,,,,-84,17:33:34.848,
,,2554,15140,406,470,376,-0.082031,0.972656,0.089844,-13.440001,-7.840000,-2.240000,-0.345728,-0.112128,0.112128,,0,0,0,0,0,,,,,,,,,-84,17:33:34.879,
,,2555,15160,408,476,378,-0.082031,0.972656,0.089844,-13.440001,-7.840000,-2.240000,-0.345728,-0.112128,0.112128,,0,0,0,0,0,,,,,,,,,-84,17:33:34.880,
,,2556,15180,409,485,381,-0.082031,0.972656,0.089844,-13.440001,-7.840000,-2.240000,-0.345728,-0.112128,0.112128,,0,0,0,0,0,,,,,,,,,-84,17:33:34.910,
,,2557,15200,410,491,387,-0.082031,0.972656,0.089844,-13.440001,-7.840000,-2.240000,-0.345728,-0.112128,0.112128,,0,0,0,0,0,,,,,,,,,-84,17:33:34.940,
,,2558,15220,412,499,399,-0.125000,0.972656,0.152344,-8.960000,-2.240000,-2.240000,-0.345728,-0.112128,0.112128,,0,0,0,0,0,,,,,,,,,-84,17:33:34.941,
,,2559,15240,415,506,414,-0.125000,0.972656,0.152344,-8.960000,-2.240000,-2.240000,-0.345728,-0.112128,0.112128,,0,0,0,0,0,,,,,,,,,-84,17:33:34.975,
,,2560,15260,415,511,432,-0.125000,0.972656,0.152344,-8.960000,-2.240000,-2.240000,-0.345728,-0.112128,0.112128,,0,0,0,0,0,,,,,,,,,-84,17:33:35.000,
,,2561,15280,418,520,457,0.203125,1.042969,0.085938,-12.320000,-1.120000,-1.120000,-0.345728,-0.112128,0.112128,,0,0,0,0,0,,,,,,,,,-84,17:33:35.001,
,,2562,15300,419,525,465,0.203125,1.042969,0.085938,-12.320000,-1.120000,-1.120000,-0.345728,-0.112128,0.112128,,0,0,0,0,0,,,,,,,,,-84,17:33:35.060,
,,2563,15320,422,529,468,0.203125,1.042969,0.085938,-12.320000,-1.120000,-1.120000,-0.345728,-0.112128,0.112128,,0,0,0,0,0,,,,,,,,,-84,17:33:35.061,
,,2564,15340,423,532,471,0.203125,1.042969,0.085938,-12.320000,-1.120000,-1.120000,-0.345728,-0.112128,0.112128,,0,0,0,0,0,,,,,,,,,-84,17:33:35.061,
,,2565,15360,425,534,471,0.187500,1.101562,0.250000,-17.920000,8.960000,-4.480000,-0.345728,-0.112128,0.112128,,0,0,0,0,0,,,,,,,,,-84,17:33:35.092,
,,2566,15380,425,535,472,0.187500,1.101562,0.250000,-17.920000,8.960000,-4.480000,-0.345728,-0.112128,0.112128,,0,0,0,0,0,,,,,,,,,-84,17:33:35.124,
,,2567,15400,427,536,471,0.187500,1.101562,0.250000,-17.920000,8.960000,-4.480000,-0.317696,-0.121472,0.065408,,0,0,0,0,0,,,,,,,,,-84,17:33:35.124,
,,2568,15420,427,536,473,0.187500,1.101562,0.250000,-17.920000,8.960000,-4.480000,-0.317696,-0.121472,0.065408,,0,0,0,0,0,,,,,,,,,-84,17:33:35.150,
,,2569,15440,428,536,471,0.257812,0.843750,0.265625,-16.799999,-32.480000,-3.360000,-0.317696,-0.121472,0.065408,,0,0,0,0,0,,,,,,,,,-84,17:33:35.180,
,,2570,15460,429,535,474,0.257812,0.843750,0.265625,-16.799999,-32.480000,-3.360000,-0.317696,-0.121472,0.065408,,0,0,0,0,0,,,,,,,,,-84,17:33:35.181,
,,2571,15480,429,535,475,0.257812,0.843750,0.265625,-16.799999,-32.480000,-3.360000,-0.317696,-0.121472,0.065408,,0,0,0,0,0,,,,,,,,,-84,17:33:35.210,
,,2572,15500,428,536,479,0.257812,0.843750,0.265625,-16.799999,-32.480000,-3.360000,-0.317696,-0.121472,0.065408,,0,0,0,0,0,,,,,,,,,-84,17:33:35.241,
,,2573,15520,429,536,486,0.210938,0.867188,0.312500,-29.120001,-84.000000,20.160000,-0.317696,-0.121472,0.065408,,0,0,0,0,0,,,,,,,,,-84,17:33:35.241,
,,2574,15540,429,535,491,0.210938,0.867188,0.312500,-29.120001,-84.000000,20.160000,-0.317696,-0.121472,0.065408,,0,0,0,0,0,,,,,,,,,-84,17:33:35.275,
,,2575,15560,429,534,496,0.210938,0.867188,0.312500,-29.120001,-84.000000,20.160000,-0.317696,-0.121472,0.065408,,0,0,0,0,0,,,,,,,,,-84,17:33:35.300,
,,2576,15580,428,534,501,-0.253906,0.945312,0.140625,-23.520000,-40.320000,23.520000,-0.317696,-0.121472,0.065408,,0,0,0,0,0,,,,,,,,,-84,17:33:35.300,
,,2577,15600,429,534,506,-0.253906,0.945312,0.140625,-23.520000,-40.320000,23.520000,-0.317696,-0.121472,0.065408,,0,0,0,0,0,,,,,,,,,-84,17:33:35.330,
,,2578,15620,429,535,509,-0.253906,0.945312,0.140625,-23.520000,-40.320000,23.520000,-0.317696,-0.121472,0.065408,,0,0,0,0,0,,,,,,,,,-84,17:33:35.360,
,,2579,15640,430,533,511,-0.253906,0.945312,0.140625,-23.520000,-40.320000,23.520000,-0.317696,-0.121472,0.065408,,0,0,0,0,0,,,,,,,,,-84,17:33:35.360,
,,2580,15660,430,532,511,-0.402344,1.035156,-0.015625,-10.080000,-30.240000,1.120000,-0.317696,-0.121472,0.065408,,0,0,0,0,0,,,,,,,,,-84,17:33:35.392,
,,2581,15680,429,531,512,-0.402344,1.035156,-0.015625,-10.080000,-30.240000,1.120000,-0.317696,-0.121472,0.065408,,0,0,0,0,0,,,,,,,,,-84,17:33:35.424,
,,2582,15700,428,531,511,-0.402344,1.035156,-0.015625,-10.080000,-30.240000,1.120000,-0.317696,-0.121472,0.065408,,0,0,0,0,0,,,,,,,,,-84,17:33:35.425,
,,2583,15720,426,530,510,-0.183594,1.011719,0.078125,12.320000,-36.959999,-36.959999,-0.317696,-0.121472,0.065408,,0,0,0,0,0,,,,,,,,,-84,17:33:35.450,
,,2584,15740,425,528,503,-0.183594,1.011719,0.078125,12.320000,-36.959999,-36.959999,-0.317696,-0.121472,0.065408,,0,0,0,0,0,,,,,,,,,-84,17:33:35.480,
,,2585,15760,422,527,497,-0.183594,1.011719,0.078125,12.320000,-36.959999,-36.959999,-0.317696,-0.121472,0.065408,,0,0,0,0,0,,,,,,,,,-84,17:33:35.481,
,,2586,15780,420,523,489,-0.183594,1.011719,0.078125,12.320000,-36.959999,-36.959999,-0.317696,-0.121472,0.065408,,0,0,0,0,0,,,,,,,,,-84,17:33:35.510,
,,2587,15800,418,519,478,0.140625,0.984375,0.167969,20.160000,-4.480000,-13.440001,-0.317696,-0.121472,0.065408,,0,0,0,0,0,,,,,,,,,-84,17:33:35.542,
,,2588,15820,417,516,464,0.140625,0.984375,0.167969,20.160000,-4.480000,-13.440001,-0.317696,-0.121472,0.065408,,0,0,0,0,0,,,,,,,,,-84,17:33:35.542,
,,2589,15840,415,513,451,0.140625,0.984375,0.167969,20.160000,-4.480000,-13.440001,-0.317696,-0.121472,0.065408,,0,0,0,0,0,,,,,,,,,-84,17:33:35.575,
,,2590,15860,413,511,437,0.140625,0.984375,0.167969,20.160000,-4.480000,-13.440001,-0.317696,-0.121472,0.065408,,0,0,0,0,0,,,,,,,,,-84,17:33:35.600,
,,2591,15880,411,507,425,-0.066406,0.964844,0.144531,15.680000,-1.120000,-10.080000,-0.317696,-0.121472,0.065408,,0,0,0,0,0,,,,,,,,,-84,17:33:35.601,
,,2592,15900,411,503,415,-0.066406,0.964844,0.144531,15.680000,-1.120000,-10.080000,-0.317696,-0.121472,0.065408,,0,0,0,0,0,,,,,,,,,-84,17:33:35.630,
,,2593,15920,408,499,407,-0.066406,0.964844,0.144531,15.680000,-1.120000,-10.080000,-0.317696,-0.121472,0.065408,,0,0,0,0,0,,,,,,,,,-84,17:33:35.660,
,,2594,15940,407,495,406,-0.066406,0.964844,0.144531,15.680000,-1.120000,-10.080000,-0.317696,-0.121472,0.065408,,0,0,0,0,0,,,,,,,,,-84,17:33:35.661,
,,2595,15960,406,488,405,-0.378906,0.968750,0.136719,16.799999,-1.120000,-11.200000,-0.317696,-0.121472,0.065408,,0,0,0,0,0,,,,,,,,,-84,17:33:35.693,
,,2596,15980,402,483,402,-0.378906,0.968750,0.136719,16.799999,-1.120000,-11.200000,-0.317696,-0.121472,0.065408,,0,0,0,0,0,,,,,,,,,-84,17:33:35.725,
,,2597,16000,401,475,404,-0.378906,0.968750,0.136719,16.799999,-1.120000,-11.200000,-0.317696,-0.121472,0.065408,,0,0,0,0,0,,,,,,,,,-84,17:33:35.725,
,,2598,16020,400,465,405,-0.378906,0.968750,0.136719,16.799999,-1.120000,-11.200000,-0.317696,-0.121472,0.065408,,0,0,0,0,0,,,,,,,,,-84,17:33:35.750,
,,2599,16040,398,458,408,-0.269531,0.964844,0.117188,10.080000,-10.080000,-13.440001,-0.317696,-0.121472,0.065408,,0,0,0,0,0,,,,,,,,,-84,17:33:35.780,
,,2600,16060,396,449,416,-0.269531,0.964844,0.117188,10.080000,-10.080000,-13.440001,-0.317696,-0.121472,0.065408,,0,0,0,0,0,,,,,,,,,-84,17:33:35.781,
,,2601,16080,393,444,426,-0.269531,0.964844,0.117188,10.080000,-10.080000,-13.440001,-0.317696,-0.121472,0.065408,,0,0,0,0,0,,,,,,,,,-84,17:33:35.810,
,,2602,16100,392,440,435,0.437500,1.074219,-0.160156,1.120000,-19.040001,-19.040001,-0.317696,-0.121472,0.065408,,0,0,0,0,0,,,,,,,,,-84,17:33:35.842,
,,2603,16120,390,438,445,0.437500,1.074219,-0.160156,1.120000,-19.040001,-19.040001,-0.317696,-0.121472,0.065408,,0,0,0,0,0,,,,,,,,,-84,17:33:35.843,
,,2604,16140,391,438,451,0.437500,1.074219,-0.160156,1.120000,-19.040001,-19.040001,-0.317696,-0.121472,0.065408,,0,0,0,0,0,,,,,,,,,-84,17:33:35.870,
