SensoriaRawDataFormat: 4.0
FirmwareRevision: 1.1.5.238R
DeviceName: Sensoria-C1-52AB
SerialNumber: C88ED8C159C3D31B
Location: 0x0001
Start: 2024-08-31T17:03:24+02:00
SamplingFrequency: 50
AfeName: N/A
AfeUnits: N/A
(null)
(null)
(null)
(null)
(null)
(null)
(null)
(null)

Tag,AutoTag,Tick,T,S0,S1,S2,Ax,Ay,Az,Gx,Gy,Gz,Mx,My,Mz,HRM,S3,S4,S5,S6,S7,CS0,CS1,CS2,CS3,CS4,CS5,CS6,CS7,RSSI,Timestamp,Zero
,,12837,0,443,655,386,-0.097656,0.972656,0.121094,-2.240000,-3.360000,-4.480000,0.616704,-0.093440,-0.541952,,0,0,0,0,0,,,,,,,,,-60,17:03:24.606,
,,12838,20,444,655,386,-0.097656,0.972656,0.121094,-2.240000,-3.360000,-4.480000,0.607360,-0.093440,-0.551296,,0,0,0,0,0,,,,,,,,,-60,17:03:24.639,
,,12839,40,444,654,387,-0.105469,0.972656,0.121094,-2.240000,-3.360000,-4.480000,0.607360,-0.093440,-0.551296,,0,0,0,0,0,,,,,,,,,-60,17:03:24.639,
,,12840,60,445,654,385,-0.105469,0.972656,0.121094,-2.240000,-3.360000,-4.480000,0.607360,-0.093440,-0.551296,,0,0,0,0,0,,,,,,,,,-60,17:03:24.664,
,,12841,80,443,655,387,-0.105469,0.972656,0.121094,-2.240000,-3.360000,-4.480000,0.607360,-0.093440,-0.551296,,0,0,0,0,0,,,,,,,,,-60,17:03:24.694,
,,12842,100,444,654,386,-0.117188,0.972656,0.113281,-1.120000,-3.360000,-4.480000,0.607360,-0.093440,-0.551296,,0,0,0,0,0,,,,,,,,,-60,17:03:24.694,
,,12843,120,442,654,386,-0.117188,0.972656,0.113281,-1.120000,-3.360000,-4.480000,0.607360,-0.093440,-0.551296,,0,0,0,0,0,,,,,,,,,-60,17:03:24.724,
,,12844,140,443,654,386,-0.117188,0.972656,0.113281,-1.120000,-3.360000,-4.480000,0.607360,-0.093440,-0.551296,,0,0,0,0,0,,,,,,,,,-60,17:03:24.757,
,,12845,160,444,653,386,-0.117188,0.972656,0.113281,-1.120000,-3.360000,-4.480000,0.607360,-0.093440,-0.551296,,0,0,0,0,0,,,,,,,,,-60,17:03:24.757,
,,12846,180,443,655,386,-0.117188,0.972656,0.113281,-1.120000,-3.360000,-4.480000,0.607360,-0.093440,-0.551296,,0,0,0,0,0,,,,,,,,,-60,17:03:24.784,
,,12847,200,444,654,387,-0.117188,0.972656,0.113281,-1.120000,-3.360000,-4.480000,0.607360,-0.093440,-0.551296,,0,0,0,0,0,,,,,,,,,-60,17:03:24.814,
,,12848,220,444,654,386,-0.117188,0.972656,0.113281,-1.120000,-3.360000,-4.480000,0.607360,-0.093440,-0.551296,,0,0,0,0,0,,,,,,,,,-60,17:03:24.814,
,,12849,240,444,654,386,-0.117188,0.972656,0.113281,-1.120000,-3.360000,-4.480000,0.607360,-0.093440,-0.551296,,0,0,0,0,0,,,,,,,,,-60,17:03:24.844,
,,12850,260,444,656,387,-0.109375,0.972656,0.125000,-1.120000,-3.360000,-4.480000,0.607360,-0.093440,-0.551296,,0,0,0,0,0,,,,,,,,,-60,17:03:24.874,
,,12851,280,444,654,386,-0.109375,0.972656,0.125000,-1.120000,-3.360000,-4.480000,0.607360,-0.093440,-0.551296,,0,0,0,0,0,,,,,,,,,-60,17:03:24.875,
,,12852,300,443,653,385,-0.109375,0.972656,0.125000,-1.120000,-3.360000,-4.480000,0.607360,-0.093440,-0.551296,,0,0,0,0,0,,,,,,,,,-60,17:03:24.907,
,,12853,320,442,654,386,-0.097656,0.972656,0.109375,-1.120000,-3.360000,-3.360000,0.607360,-0.093440,-0.551296,,0,0,0,0,0,,,,,,,,,-60,17:03:24.934,
,,12854,340,444,654,384,-0.097656,0.972656,0.109375,-1.120000,-3.360000,-3.360000,0.607360,-0.093440,-0.551296,,0,0,0,0,0,,,,,,,,,-60,17:03:24.935,
,,12855,360,444,653,385,-0.097656,0.972656,0.109375,-1.120000,-3.360000,-3.360000,0.607360,-0.093440,-0.551296,,0,0,0,0,0,,,,,,,,,-60,17:03:24.964,
,,12856,380,443,654,385,-0.097656,0.972656,0.109375,-1.120000,-3.360000,-3.360000,0.607360,-0.093440,-0.551296,,0,0,0,0,0,,,,,,,,,-60,17:03:24.994,
,,12857,400,444,652,384,-0.105469,0.972656,0.117188,-1.120000,-3.360000,-4.480000,0.607360,-0.093440,-0.551296,,0,0,0,0,0,,,,,,,,,-60,17:03:24.995,
,,12858,420,444,654,384,-0.105469,0.972656,0.117188,-1.120000,-3.360000,-4.480000,0.607360,-0.093440,-0.551296,,0,0,0,0,0,,,,,,,,,-60,17:03:25.024,
,,12859,440,442,654,384,-0.105469,0.972656,0.117188,-1.120000,-3.360000,-4.480000,0.607360,-0.093440,-0.551296,,0,0,0,0,0,,,,,,,,,-60,17:03:25.057,
,,12860,460,444,653,385,-0.105469,0.972656,0.117188,-1.120000,-3.360000,-4.480000,0.607360,-0.093440,-0.551296,,0,0,0,0,0,,,,,,,,,-60,17:03:25.058,
,,12861,480,444,654,385,-0.105469,0.972656,0.113281,-2.240000,-3.360000,-4.480000,0.607360,-0.093440,-0.551296,,0,0,0,0,0,,,,,,,,,-60,17:03:25.090,
,,12862,500,444,655,384,-0.105469,0.972656,0.113281,-2.240000,-3.360000,-4.480000,0.607360,-0.093440,-0.551296,,0,0,0,0,0,,,,,,,,,-60,17:03:25.115,
,,12863,520,443,652,385,-0.105469,0.972656,0.113281,-2.240000,-3.360000,-4.480000,0.607360,-0.093440,-0.551296,,0,0,0,0,0,,,,,,,,,-60,17:03:25.116,
,,12864,540,443,653,385,-0.105469,0.972656,0.113281,-2.240000,-3.360000,-4.480000,0.607360,-0.093440,-0.551296,,0,0,0,0,0,,,,,,,,,-60,17:03:25.146,
,,12865,560,443,654,385,-0.113281,0.972656,0.113281,-2.240000,-3.360000,-4.480000,0.607360,-0.093440,-0.551296,,0,0,0,0,0,,,,,,,,,-60,17:03:25.175,
,,12866,580,443,653,384,-0.113281,0.972656,0.113281,-2.240000,-3.360000,-4.480000,0.607360,-0.093440,-0.551296,,0,0,0,0,0,,,,,,,,,-60,17:03:25.176,
,,12867,600,444,653,385,-0.113281,0.972656,0.113281,-2.240000,-3.360000,-4.480000,0.607360,-0.093440,-0.551296,,0,0,0,0,0,,,,,,,,,-60,17:03:25.208,
,,12868,620,443,653,385,-0.113281,0.972656,0.113281,-2.240000,-3.360000,-4.480000,0.607360,-0.093440,-0.551296,,0,0,0,0,0,,,,,,,,,-60,17:03:25.235,
,,12869,640,444,653,385,-0.105469,0.972656,0.113281,-2.240000,-3.360000,-4.480000,0.607360,-0.093440,-0.551296,,0,0,0,0,0,,,,,,,,,-60,17:03:25.236,
,,12870,660,444,652,386,-0.105469,0.972656,0.113281,-2.240000,-3.360000,-4.480000,0.607360,-0.093440,-0.551296,,0,0,0,0,0,,,,,,,,,-60,17:03:25.265,
,,12871,680,444,653,384,-0.105469,0.972656,0.113281,-2.240000,-3.360000,-4.480000,0.607360,-0.093440,-0.551296,,0,0,0,0,0,,,,,,,,,-60,17:03:25.295,
,,12872,700,444,654,385,-0.105469,0.972656,0.113281,-2.240000,-3.360000,-4.480000,0.607360,-0.093440,-0.551296,,0,0,0,0,0,,,,,,,,,-60,17:03:25.296,
,,12873,720,443,653,385,-0.101562,0.972656,0.121094,-2.240000,-3.360000,-4.480000,0.607360,-0.093440,-0.551296,,0,0,0,0,0,,,,,,,,,-60,17:03:25.326,
,,12874,740,443,653,385,-0.101562,0.972656,0.121094,-2.240000,-3.360000,-4.480000,0.607360,-0.093440,-0.551296,,0,0,0,0,0,,,,,,,,,-60,17:03:25.358,
,,12875,760,441,654,384,-0.101562,0.972656,0.121094,-2.240000,-3.360000,-4.480000,0.607360,-0.093440,-0.551296,,0,0,0,0,0,,,,,,,,,-60,17:03:25.359,
,,12876,780,444,654,385,-0.109375,0.972656,0.113281,-2.240000,-3.360000,-4.480000,0.607360,-0.093440,-0.551296,,0,0,0,0,0,,,,,,,,,-60,17:03:25.386,
,,12877,800,443,654,385,-0.109375,0.972656,0.113281,-2.240000,-3.360000,-4.480000,0.607360,-0.093440,-0.551296,,0,0,0,0,0,,,,,,,,,-60,17:03:25.415,
,,12878,820,443,653,384,-0.109375,0.972656,0.113281,-2.240000,-3.360000,-4.480000,0.607360,-0.093440,-0.551296,,0,0,0,0,0,,,,,,,,,-60,17:03:25.416,
,,12879,840,444,653,384,-0.109375,0.972656,0.113281,-2.240000,-3.360000,-4.480000,0.607360,-0.093440,-0.551296,,0,0,0,0,0,,,,,,,,,-60,17:03:25.446,
,,12880,860,445,653,384,-0.113281,0.972656,0.113281,-2.240000,-3.360000,-4.480000,0.607360,-0.093440,-0.551296,,0,0,0,0,0,,,,,,,,,-60,17:03:25.477,
,,12881,880,443,652,386,-0.113281,0.972656,0.113281,-2.240000,-3.360000,-4.480000,0.607360,-0.093440,-0.551296,,0,0,0,0,0,,,,,,,,,-60,17:03:25.478,
,,12882,900,442,654,384,-0.113281,0.972656,0.113281,-2.240000,-3.360000,-4.480000,0.607360,-0.093440,-0.551296,,0,0,0,0,0,,,,,,,,,-60,17:03:25.509,
,,12883,920,444,654,384,-0.113281,0.972656,0.113281,-2.240000,-3.360000,-4.480000,0.607360,-0.093440,-0.551296,,0,0,0,0,0,,,,,,,,,-60,17:03:25.535,
,,12884,940,443,652,385,-0.101562,0.972656,0.121094,-2.240000,-3.360000,-4.480000,0.607360,-0.093440,-0.551296,,0,0,0,0,0,,,,,,,,,-60,17:03:25.536,
,,12885,960,443,654,385,-0.101562,0.972656,0.121094,-2.240000,-3.360000,-4.480000,0.607360,-0.093440,-0.551296,,0,0,0,0,0,,,,,,,,,-60,17:03:25.566,
,,12886,980,442,653,384,-0.101562,0.972656,0.121094,-2.240000,-3.360000,-4.480000,0.607360,-0.093440,-0.551296,,0,0,0,0,0,,,,,,,,,-60,17:03:25.595,
,,12887,1000,444,653,384,-0.101562,0.972656,0.121094,-2.240000,-3.360000,-4.480000,0.607360,-0.093440,-0.551296,,0,0,0,0,0,,,,,,,,,-60,17:03:25.596,
,,12888,1020,442,653,385,-0.105469,0.972656,0.117188,-2.240000,-3.360000,-4.480000,0.607360,-0.093440,-0.551296,,0,0,0,0,0,,,,,,,,,-60,17:03:25.626,
,,12889,1040,443,653,385,-0.105469,0.972656,0.117188,-2.240000,-3.360000,-4.480000,0.607360,-0.093440,-0.551296,,0,0,0,0,0,,,,,,,,,-60,17:03:25.659,
,,12890,1060,443,654,384,-0.105469,0.972656,0.117188,-2.240000,-3.360000,-4.480000,0.607360,-0.093440,-0.551296,,0,0,0,0,0,,,,,,,,,-60,17:03:25.659,
,,12891,1080,443,653,385,-0.105469,0.972656,0.117188,-2.240000,-3.360000,-4.480000,0.607360,-0.093440,-0.551296,,0,0,0,0,0,,,,,,,,,-60,17:03:25.686,
,,12892,1100,442,654,385,-0.113281,0.972656,0.117188,-2.240000,-3.360000,-4.480000,0.607360,-0.093440,-0.551296,,0,0,0,0,0,,,,,,,,,-60,17:03:25.715,
,,12893,1120,444,652,384,-0.113281,0.972656,0.117188,-2.240000,-3.360000,-4.480000,0.607360,-0.093440,-0.551296,,0,0,0,0,0,,,,,,,,,-60,17:03:25.716,
,,12894,1140,443,653,384,-0.113281,0.972656,0.117188,-2.240000,-3.360000,-4.480000,0.607360,-0.093440,-0.551296,,0,0,0,0,0,,,,,,,,,-60,17:03:25.746,
,,12895,1160,444,652,384,-0.113281,0.972656,0.117188,-2.240000,-3.360000,-4.480000,0.607360,-0.093440,-0.551296,,0,0,0,0,0,,,,,,,,,-60,17:03:25.776,
,,12896,1180,443,653,383,-0.113281,0.972656,0.117188,-1.120000,-3.360000,-4.480000,0.607360,-0.093440,-0.551296,,0,0,0,0,0,,,,,,,,,-60,17:03:25.776,
,,12897,1200,443,653,383,-0.113281,0.972656,0.117188,-1.120000,-3.360000,-4.480000,0.607360,-0.093440,-0.551296,,0,0,0,0,0,,,,,,,,,-60,17:03:25.809,
,,12898,1220,443,652,385,-0.113281,0.972656,0.117188,-1.120000,-3.360000,-4.480000,0.607360,-0.093440,-0.551296,,0,0,0,0,0,,,,,,,,,-60,17:03:25.836,
,,12899,1240,443,652,384,-0.113281,0.972656,0.117188,-1.120000,-3.360000,-4.480000,0.607360,-0.093440,-0.551296,,0,0,0,0,0,,,,,,,,,-60,17:03:25.836,
,,12900,1260,444,651,386,-0.101562,0.972656,0.117188,-1.120000,-3.360000,-4.480000,0.607360,-0.093440,-0.551296,,0,0,0,0,0,,,,,,,,,-60,17:03:25.866,
,,12901,1280,442,652,385,-0.101562,0.972656,0.117188,-1.120000,-3.360000,-4.480000,0.607360,-0.093440,-0.551296,,0,0,0,0,0,,,,,,,,,-60,17:03:25.896,
,,12902,1300,444,652,384,-0.101562,0.972656,0.117188,-1.120000,-3.360000,-4.480000,0.607360,-0.093440,-0.551296,,0,0,0,0,0,,,,,,,,,-60,17:03:25.896,
,,12903,1320,443,654,384,-0.101562,0.972656,0.117188,-1.120000,-3.360000,-4.480000,0.607360,-0.093440,-0.551296,,0,0,0,0,0,,,,,,,,,-60,17:03:25.926,
,,12904,1340,442,653,384,-0.109375,0.972656,0.113281,-1.120000,-3.360000,-4.480000,0.607360,-0.093440,-0.551296,,0,0,0,0,0,,,,,,,,,-60,17:03:25.953,
,,12905,1360,444,654,384,-0.109375,0.972656,0.113281,-1.120000,-3.360000,-4.480000,0.607360,-0.093440,-0.551296,,0,0,0,0,0,,,,,,,,,-60,17:03:25.954,
,,12906,1380,443,653,386,-0.109375,0.972656,0.113281,-1.120000,-3.360000,-4.480000,0.607360,-0.093440,-0.551296,,0,0,0,0,0,,,,,,,,,-60,17:03:25.986,
,,12907,1400,444,654,384,-0.113281,0.972656,0.117188,-1.120000,-3.360000,-4.480000,0.607360,-0.093440,-0.551296,,0,0,0,0,0,,,,,,,,,-60,17:03:26.017,
,,12908,1420,444,654,384,-0.113281,0.972656,0.117188,-1.120000,-3.360000,-4.480000,0.607360,-0.093440,-0.551296,,0,0,0,0,0,,,,,,,,,-60,17:03:26.017,
,,12909,1440,442,653,384,-0.113281,0.972656,0.117188,-1.120000,-3.360000,-4.480000,0.607360,-0.093440,-0.551296,,0,0,0,0,0,,,,,,,,,-60,17:03:26.046,
,,12910,1460,443,652,384,-0.113281,0.972656,0.117188,-1.120000,-3.360000,-4.480000,0.607360,-0.093440,-0.551296,,0,0,0,0,0,,,,,,,,,-60,17:03:26.076,
,,12911,1480,442,655,385,-0.105469,0.972656,0.113281,-2.240000,-3.360000,-4.480000,0.607360,-0.093440,-0.551296,,0,0,0,0,0,,,,,,,,,-60,17:03:26.077,
,,12912,1500,444,654,385,-0.105469,0.972656,0.113281,-2.240000,-3.360000,-4.480000,0.607360,-0.093440,-0.551296,,0,0,0,0,0,,,,,,,,,-60,17:03:26.110,
,,12913,1520,442,654,383,-0.105469,0.972656,0.113281,-2.240000,-3.360000,-4.480000,0.607360,-0.093440,-0.551296,,0,0,0,0,0,,,,,,,,,-60,17:03:26.135,
,,12914,1540,442,652,384,-0.105469,0.972656,0.113281,-2.240000,-3.360000,-4.480000,0.607360,-0.093440,-0.551296,,0,0,0,0,0,,,,,,,,,-60,17:03:26.136,
,,12915,1560,443,653,384,-0.101562,0.972656,0.117188,-2.240000,-3.360000,-4.480000,0.607360,-0.093440,-0.551296,,0,0,0,0,0,,,,,,,,,-60,17:03:26.166,
,,12916,1580,443,653,385,-0.101562,0.972656,0.117188,-2.240000,-3.360000,-4.480000,0.607360,-0.093440,-0.551296,,0,0,0,0,0,,,,,,,,,-60,17:03:26.195,
,,12917,1600,443,651,384,-0.101562,0.972656,0.117188,-2.240000,-3.360000,-4.480000,0.607360,-0.093440,-0.551296,,0,0,0,0,0,,,,,,,,,-60,17:03:26.196,
,,12918,1620,443,653,384,-0.109375,0.972656,0.113281,-2.240000,-3.360000,-4.480000,0.607360,-0.093440,-0.541952,,0,0,0,0,0,,,,,,,,,-60,17:03:26.226,
,,12919,1640,442,652,384,-0.109375,0.972656,0.113281,-2.240000,-3.360000,-4.480000,0.607360,-0.093440,-0.541952,,0,0,0,0,0,,,,,,,,,-60,17:03:26.261,
,,12920,1660,442,653,385,-0.109375,0.972656,0.113281,-2.240000,-3.360000,-4.480000,0.607360,-0.093440,-0.541952,,0,0,0,0,0,,,,,,,,,-60,17:03:26.261,
,,12921,1680,443,653,384,-0.109375,0.972656,0.113281,-2.240000,-3.360000,-4.480000,0.607360,-0.093440,-0.541952,,0,0,0,0,0,,,,,,,,,-60,17:03:26.286,
,,12922,1700,444,655,385,-0.113281,0.972656,0.121094,-2.240000,-3.360000,-4.480000,0.607360,-0.093440,-0.541952,,0,0,0,0,0,,,,,,,,,-60,17:03:26.315,
,,12923,1720,443,652,384,-0.113281,0.972656,0.121094,-2.240000,-3.360000,-4.480000,0.607360,-0.093440,-0.541952,,0,0,0,0,0,,,,,,,,,-60,17:03:26.316,
,,12924,1740,443,652,384,-0.113281,0.972656,0.121094,-2.240000,-3.360000,-4.480000,0.607360,-0.093440,-0.541952,,0,0,0,0,0,,,,,,,,,-60,17:03:26.346,
,,12925,1760,443,654,385,-0.113281,0.972656,0.121094,-2.240000,-3.360000,-4.480000,0.607360,-0.093440,-0.541952,,0,0,0,0,0,,,,,,,,,-60,17:03:26.377,
,,12926,1780,443,654,385,-0.109375,0.972656,0.121094,-2.240000,-3.360000,-4.480000,0.607360,-0.093440,-0.541952,,0,0,0,0,0,,,,,,,,,-60,17:03:26.377,
,,12927,1800,443,654,386,-0.109375,0.972656,0.121094,-2.240000,-3.360000,-4.480000,0.607360,-0.093440,-0.541952,,0,0,0,0,0,,,,,,,,,-60,17:03:26.410,
,,12928,1820,442,653,385,-0.109375,0.972656,0.121094,-2.240000,-3.360000,-4.480000,0.607360,-0.093440,-0.541952,,0,0,0,0,0,,,,,,,,,-60,17:03:26.435,
,,12929,1840,442,653,386,-0.109375,0.972656,0.121094,-2.240000,-3.360000,-4.480000,0.607360,-0.093440,-0.541952,,0,0,0,0,0,,,,,,,,,-60,17:03:26.436,
,,12930,1860,443,653,386,-0.109375,0.972656,0.121094,-2.240000,-3.360000,-4.480000,0.607360,-0.093440,-0.541952,,0,0,0,0,0,,,,,,,,,-60,17:03:26.466,
,,12931,1880,443,653,386,-0.109375,0.972656,0.121094,-2.240000,-3.360000,-4.480000,0.607360,-0.093440,-0.541952,,0,0,0,0,0,,,,,,,,,-60,17:03:26.495,
,,12932,1900,442,651,386,-0.109375,0.972656,0.121094,-2.240000,-3.360000,-4.480000,0.607360,-0.093440,-0.541952,,0,0,0,0,0,,,,,,,,,-60,17:03:26.496,
,,12933,1920,441,653,386,-0.109375,0.972656,0.121094,-2.240000,-3.360000,-4.480000,0.607360,-0.093440,-0.541952,,0,0,0,0,0,,,,,,,,,-60,17:03:26.527,
,,12934,1940,442,652,386,-0.109375,0.972656,0.117188,-1.120000,-3.360000,-4.480000,0.607360,-0.093440,-0.541952,,0,0,0,0,0,,,,,,,,,-60,17:03:26.561,
,,12935,1960,442,654,387,-0.109375,0.972656,0.117188,-1.120000,-3.360000,-4.480000,0.607360,-0.093440,-0.541952,,0,0,0,0,0,,,,,,,,,-60,17:03:26.562,
,,12936,1980,441,652,388,-0.109375,0.972656,0.117188,-1.120000,-3.360000,-4.480000,0.607360,-0.093440,-0.541952,,0,0,0,0,0,,,,,,,,,-60,17:03:26.586,
,,12937,2000,443,652,387,-0.109375,0.972656,0.117188,-1.120000,-3.360000,-4.480000,0.607360,-0.093440,-0.541952,,0,0,0,0,0,,,,,,,,,-60,17:03:26.615,
,,12938,2020,444,654,387,-0.101562,0.972656,0.117188,-1.120000,-3.360000,-4.480000,0.607360,-0.093440,-0.541952,,0,0,0,0,0,,,,,,,,,-60,17:03:26.616,
,,12939,2040,442,654,387,-0.101562,0.972656,0.117188,-1.120000,-3.360000,-4.480000,0.607360,-0.093440,-0.541952,,0,0,0,0,0,,,,,,,,,-60,17:03:26.646,
,,12940,2060,441,654,389,-0.101562,0.972656,0.117188,-1.120000,-3.360000,-4.480000,0.607360,-0.093440,-0.541952,,0,0,0,0,0,,,,,,,,,-60,17:03:26.678,
,,12941,2080,443,653,388,-0.101562,0.972656,0.117188,-1.120000,-3.360000,-4.480000,0.607360,-0.093440,-0.541952,,0,0,0,0,0,,,,,,,,,-60,17:03:26.678,
,,12942,2100,442,651,388,-0.113281,0.972656,0.117188,-2.240000,-3.360000,-4.480000,0.607360,-0.093440,-0.541952,,0,0,0,0,0,,,,,,,,,-60,17:03:26.711,
,,12943,2120,443,653,389,-0.113281,0.972656,0.117188,-2.240000,-3.360000,-4.480000,0.607360,-0.093440,-0.541952,,0,0,0,0,0,,,,,,,,,-60,17:03:26.735,
,,12944,2140,441,653,388,-0.113281,0.972656,0.117188,-2.240000,-3.360000,-4.480000,0.607360,-0.093440,-0.541952,,0,0,0,0,0,,,,,,,,,-60,17:03:26.736,
,,12945,2160,443,652,389,-0.113281,0.972656,0.117188,-1.120000,-3.360000,-4.480000,0.607360,-0.093440,-0.541952,,0,0,0,0,0,,,,,,,,,-60,17:03:26.766,
,,12946,2180,443,653,389,-0.113281,0.972656,0.117188,-1.120000,-3.360000,-4.480000,0.607360,-0.093440,-0.541952,,0,0,0,0,0,,,,,,,,,-60,17:03:26.795,
,,12947,2200,441,653,389,-0.113281,0.972656,0.117188,-1.120000,-3.360000,-4.480000,0.607360,-0.093440,-0.541952,,0,0,0,0,0,,,,,,,,,-60,17:03:26.796,
,,12948,2220,442,652,389,-0.113281,0.972656,0.117188,-1.120000,-3.360000,-4.480000,0.607360,-0.093440,-0.541952,,0,0,0,0,0,,,,,,,,,-60,17:03:26.828,
,,12949,2240,442,653,388,-0.109375,0.972656,0.117188,-1.120000,-3.360000,-4.480000,0.607360,-0.093440,-0.541952,,0,0,0,0,0,,,,,,,,,-60,17:03:26.855,
,,12950,2260,441,653,388,-0.109375,0.972656,0.117188,-1.120000,-3.360000,-4.480000,0.607360,-0.093440,-0.541952,,0,0,0,0,0,,,,,,,,,-60,17:03:26.856,
,,12951,2280,441,652,389,-0.109375,0.972656,0.117188,-1.120000,-3.360000,-4.480000,0.607360,-0.093440,-0.541952,,0,0,0,0,0,,,,,,,,,-60,17:03:26.886,
,,12952,2300,443,652,388,-0.109375,0.972656,0.117188,-1.120000,-3.360000,-4.480000,0.607360,-0.093440,-0.541952,,0,0,0,0,0,,,,,,,,,-60,17:03:26.915,
,,12953,2320,442,654,389,-0.105469,0.972656,0.117188,-1.120000,-3.360000,-4.480000,0.607360,-0.093440,-0.541952,,0,0,0,0,0,,,,,,,,,-60,17:03:26.946,
,,12954,2340,441,652,388,-0.105469,0.972656,0.117188,-1.120000,-3.360000,-4.480000,0.607360,-0.093440,-0.541952,,0,0,0,0,0,,,,,,,,,-60,17:03:26.946,
,,12955,2360,441,654,388,-0.105469,0.972656,0.117188,-1.120000,-3.360000,-4.480000,0.607360,-0.093440,-0.541952,,0,0,0,0,0,,,,,,,,,-60,17:03:26.947,
,,12956,2380,441,652,388,-0.105469,0.972656,0.117188,-1.120000,-3.360000,-4.480000,0.607360,-0.093440,-0.541952,,0,0,0,0,0,,,,,,,,,-60,17:03:26.980,
,,12957,2400,442,652,389,-0.109375,0.972656,0.117188,-1.120000,-3.360000,-4.480000,0.607360,-0.093440,-0.541952,,0,0,0,0,0,,,,,,,,,-60,17:03:27.006,
,,12958,2420,442,652,388,-0.109375,0.972656,0.117188,-1.120000,-3.360000,-4.480000,0.607360,-0.093440,-0.541952,,0,0,0,0,0,,,,,,,,,-60,17:03:27.035,
,,12959,2440,441,654,387,-0.109375,0.972656,0.117188,-1.120000,-3.360000,-4.480000,0.607360,-0.093440,-0.541952,,0,0,0,0,0,,,,,,,,,-60,17:03:27.036,
,,12960,2460,442,653,387,-0.109375,0.972656,0.117188,-1.120000,-3.360000,-4.480000,0.607360,-0.093440,-0.541952,,0,0,0,0,0,,,,,,,,,-60,17:03:27.065,
,,12961,2480,442,653,387,-0.109375,0.972656,0.117188,-1.120000,-3.360000,-4.480000,0.607360,-0.093440,-0.541952,,0,0,0,0,0,,,,,,,,,-60,17:03:27.096,
,,12962,2500,442,651,388,-0.109375,0.972656,0.117188,-1.120000,-3.360000,-4.480000,0.607360,-0.093440,-0.541952,,0,0,0,0,0,,,,,,,,,-60,17:03:27.096,
,,12963,2520,441,652,387,-0.109375,0.972656,0.117188,-1.120000,-3.360000,-4.480000,0.607360,-0.093440,-0.541952,,0,0,0,0,0,,,,,,,,,-60,17:03:27.128,
,,12964,2540,442,652,388,-0.109375,0.972656,0.113281,-1.120000,-3.360000,-4.480000,0.607360,-0.093440,-0.541952,,0,0,0,0,0,,,,,,,,,-60,17:03:27.155,
,,12965,2560,443,653,388,-0.109375,0.972656,0.113281,-1.120000,-3.360000,-4.480000,0.607360,-0.093440,-0.541952,,0,0,0,0,0,,,,,,,,,-60,17:03:27.156,
,,12966,2580,441,652,387,-0.109375,0.972656,0.113281,-1.120000,-3.360000,-4.480000,0.607360,-0.093440,-0.541952,,0,0,0,0,0,,,,,,,,,-60,17:03:27.185,
,,12967,2600,442,653,387,-0.109375,0.972656,0.113281,-1.120000,-3.360000,-4.480000,0.607360,-0.093440,-0.541952,,0,0,0,0,0,,,,,,,,,-60,17:03:27.239,
,,12968,2620,441,653,387,-0.101562,0.972656,0.113281,-1.120000,-3.360000,-4.480000,0.607360,-0.093440,-0.541952,,0,0,0,0,0,,,,,,,,,-60,17:03:27.240,
,,12969,2640,443,652,388,-0.101562,0.972656,0.113281,-1.120000,-3.360000,-4.480000,0.607360,-0.093440,-0.541952,,0,0,0,0,0,,,,,,,,,-60,17:03:27.249,
,,12970,2660,440,652,388,-0.101562,0.972656,0.113281,-1.120000,-3.360000,-4.480000,0.607360,-0.093440,-0.541952,,0,0,0,0,0,,,,,,,,,-65,17:03:27.281,
,,12971,2680,442,653,387,-0.101562,0.972656,0.113281,-1.120000,-3.360000,-4.480000,0.607360,-0.093440,-0.541952,,0,0,0,0,0,,,,,,,,,-65,17:03:27.282,
,,12972,2700,442,651,387,-0.109375,0.972656,0.113281,-1.120000,-3.360000,-4.480000,0.607360,-0.093440,-0.541952,,0,0,0,0,0,,,,,,,,,-65,17:03:27.305,
,,12973,2720,440,652,388,-0.109375,0.972656,0.113281,-1.120000,-3.360000,-4.480000,0.607360,-0.093440,-0.541952,,0,0,0,0,0,,,,,,,,,-65,17:03:27.337,
,,12974,2740,442,654,386,-0.109375,0.972656,0.113281,-1.120000,-3.360000,-4.480000,0.607360,-0.093440,-0.541952,,0,0,0,0,0,,,,,,,,,-65,17:03:27.338,
,,12975,2760,442,651,387,-0.109375,0.972656,0.113281,-1.120000,-3.360000,-4.480000,0.607360,-0.093440,-0.541952,,0,0,0,0,0,,,,,,,,,-65,17:03:27.366,
,,12976,2780,440,652,386,-0.113281,0.972656,0.113281,-2.240000,-3.360000,-4.480000,0.607360,-0.093440,-0.541952,,0,0,0,0,0,,,,,,,,,-65,17:03:27.396,
,,12977,2800,441,652,388,-0.113281,0.972656,0.113281,-2.240000,-3.360000,-4.480000,0.607360,-0.093440,-0.541952,,0,0,0,0,0,,,,,,,,,-65,17:03:27.397,
,,12978,2820,442,653,389,-0.113281,0.972656,0.113281,-2.240000,-3.360000,-4.480000,0.607360,-0.093440,-0.541952,,0,0,0,0,0,,,,,,,,,-65,17:03:27.429,
,,12979,2840,442,652,387,-0.097656,0.972656,0.121094,-1.120000,-4.480000,-4.480000,0.607360,-0.093440,-0.541952,,0,0,0,0,0,,,,,,,,,-65,17:03:27.455,
,,12980,2860,441,652,386,-0.097656,0.972656,0.121094,-1.120000,-4.480000,-4.480000,0.607360,-0.093440,-0.541952,,0,0,0,0,0,,,,,,,,,-65,17:03:27.456,
,,12981,2880,442,651,386,-0.097656,0.972656,0.121094,-1.120000,-4.480000,-4.480000,0.607360,-0.093440,-0.541952,,0,0,0,0,0,,,,,,,,,-65,17:03:27.486,
,,12982,2900,441,653,386,-0.097656,0.972656,0.121094,-1.120000,-4.480000,-4.480000,0.607360,-0.093440,-0.541952,,0,0,0,0,0,,,,,,,,,-65,17:03:27.515,
,,12983,2920,443,652,387,-0.117188,0.972656,0.113281,-1.120000,-3.360000,-4.480000,0.607360,-0.093440,-0.541952,,0,0,0,0,0,,,,,,,,,-65,17:03:27.516,
,,12984,2940,442,654,386,-0.117188,0.972656,0.113281,-1.120000,-3.360000,-4.480000,0.607360,-0.093440,-0.541952,,0,0,0,0,0,,,,,,,,,-65,17:03:27.547,
,,12985,2960,442,652,388,-0.117188,0.972656,0.113281,-1.120000,-3.360000,-4.480000,0.607360,-0.093440,-0.541952,,0,0,0,0,0,,,,,,,,,-65,17:03:27.581,
,,12986,2980,443,652,386,-0.117188,0.972656,0.113281,-1.120000,-3.360000,-4.480000,0.607360,-0.093440,-0.541952,,0,0,0,0,0,,,,,,,,,-65,17:03:27.581,
,,12987,3000,442,652,386,-0.128906,0.972656,0.117188,-1.120000,-3.360000,-4.480000,0.607360,-0.093440,-0.541952,,0,0,0,0,0,,,,,,,,,-65,17:03:27.605,
,,12988,3020,444,654,388,-0.128906,0.972656,0.117188,-1.120000,-3.360000,-4.480000,0.607360,-0.093440,-0.541952,,0,0,0,0,0,,,,,,,,,-65,17:03:27.635,
,,12989,3040,443,654,386,-0.128906,0.972656,0.117188,-1.120000,-3.360000,-4.480000,0.607360,-0.093440,-0.541952,,0,0,0,0,0,,,,,,,,,-65,17:03:27.636,
,,12990,3060,444,656,386,-0.128906,0.972656,0.117188,-1.120000,-3.360000,-4.480000,0.607360,-0.093440,-0.541952,,0,0,0,0,0,,,,,,,,,-65,17:03:27.770,
,,12991,3080,444,656,386,-0.121094,0.968750,0.113281,1.120000,-5.600000,-4.480000,0.607360,-0.093440,-0.541952,,0,0,0,0,0,,,,,,,,,-65,17:03:27.770,
,,12992,3100,444,656,386,-0.121094,0.968750,0.113281,1.120000,-5.600000,-4.480000,0.607360,-0.093440,-0.541952,,0,0,0,0,0,,,,,,,,,-65,17:03:27.771,
,,12993,3120,444,655,385,-0.121094,0.968750,0.113281,1.120000,-5.600000,-4.480000,0.607360,-0.093440,-0.541952,,0,0,0,0,0,,,,,,,,,-65,17:03:27.771,
,,12994,3140,445,656,385,-0.121094,0.968750,0.113281,1.120000,-5.600000,-4.480000,0.607360,-0.093440,-0.541952,,0,0,0,0,0,,,,,,,,,-65,17:03:27.772,
,,12995,3160,445,656,385,-0.031250,0.980469,0.113281,3.360000,-6.720000,-4.480000,0.607360,-0.093440,-0.541952,,0,0,0,0,0,,,,,,,,,-65,17:03:27.773,
,,12996,3180,444,655,385,-0.031250,0.980469,0.113281,3.360000,-6.720000,-4.480000,0.607360,-0.093440,-0.541952,,0,0,0,0,0,,,,,,,,,-65,17:03:27.784,
,,12997,3200,443,656,385,-0.031250,0.980469,0.113281,3.360000,-6.720000,-4.480000,0.607360,-0.093440,-0.541952,,0,0,0,0,0,,,,,,,,,-65,17:03:27.786,
,,12998,3220,444,657,384,-0.031250,0.980469,0.113281,3.360000,-6.720000,-4.480000,0.616704,-0.084096,-0.541952,,0,0,0,0,0,,,,,,,,,-65,17:03:27.826,
,,12999,3240,443,655,385,-0.109375,0.972656,0.097656,3.360000,-4.480000,-4.480000,0.616704,-0.084096,-0.541952,,0,0,0,0,0,,,,,,,,,-65,17:03:27.844,
,,13000,3260,441,658,386,-0.109375,0.972656,0.097656,3.360000,-4.480000,-4.480000,0.616704,-0.084096,-0.541952,,0,0,0,0,0,,,,,,,,,-65,17:03:27.846,
,,13001,3280,444,658,384,-0.109375,0.972656,0.097656,3.360000,-4.480000,-4.480000,0.616704,-0.084096,-0.541952,,0,0,0,0,0,,,,,,,,,-65,17:03:27.875,
,,13002,3300,442,659,385,-0.109375,0.972656,0.097656,3.360000,-4.480000,-4.480000,0.616704,-0.084096,-0.541952,,0,0,0,0,0,,,,,,,,,-65,17:03:27.907,
,,13003,3320,442,658,385,-0.136719,0.972656,0.078125,3.360000,-3.360000,-4.480000,0.616704,-0.084096,-0.541952,,0,0,0,0,0,,,,,,,,,-65,17:03:27.908,
,,13004,3340,441,657,385,-0.136719,0.972656,0.078125,3.360000,-3.360000,-4.480000,0.616704,-0.084096,-0.541952,,0,0,0,0,0,,,,,,,,,-65,17:03:27.936,
,,13005,3360,442,657,384,-0.136719,0.972656,0.078125,3.360000,-3.360000,-4.480000,0.616704,-0.084096,-0.541952,,0,0,0,0,0,,,,,,,,,-65,17:03:27.970,
,,13006,3380,441,658,386,-0.171875,0.972656,0.074219,2.240000,-2.240000,-3.360000,0.616704,-0.084096,-0.541952,,0,0,0,0,0,,,,,,,,,-65,17:03:27.972,
,,13007,3400,441,658,384,-0.171875,0.972656,0.074219,2.240000,-2.240000,-3.360000,0.616704,-0.084096,-0.541952,,0,0,0,0,0,,,,,,,,,-65,17:03:27.996,
,,13008,3420,442,658,384,-0.171875,0.972656,0.074219,2.240000,-2.240000,-3.360000,0.616704,-0.084096,-0.541952,,0,0,0,0,0,,,,,,,,,-65,17:03:28.028,
,,13009,3440,442,658,384,-0.171875,0.972656,0.074219,2.240000,-2.240000,-3.360000,0.616704,-0.084096,-0.541952,,0,0,0,0,0,,,,,,,,,-65,17:03:28.030,
,,13010,3460,442,657,384,-0.074219,0.980469,0.058594,1.120000,-3.360000,-4.480000,0.616704,-0.084096,-0.541952,,0,0,0,0,0,,,,,,,,,-65,17:03:28.057,
,,13011,3480,442,657,384,-0.074219,0.980469,0.058594,1.120000,-3.360000,-4.480000,0.616704,-0.084096,-0.541952,,0,0,0,0,0,,,,,,,,,-65,17:03:28.087,
,,13012,3500,442,657,383,-0.074219,0.980469,0.058594,1.120000,-3.360000,-4.480000,0.616704,-0.084096,-0.541952,,0,0,0,0,0,,,,,,,,,-65,17:03:28.088,
,,13013,3520,442,657,384,-0.074219,0.980469,0.058594,1.120000,-3.360000,-4.480000,0.616704,-0.084096,-0.541952,,0,0,0,0,0,,,,,,,,,-65,17:03:28.117,
,,13014,3540,442,657,385,-0.062500,0.980469,0.097656,-2.240000,-3.360000,-4.480000,0.616704,-0.084096,-0.541952,,0,0,0,0,0,,,,,,,,,-65,17:03:28.147,
,,13015,3560,442,657,384,-0.062500,0.980469,0.097656,-2.240000,-3.360000,-4.480000,0.616704,-0.084096,-0.541952,,0,0,0,0,0,,,,,,,,,-65,17:03:28.148,
,,13016,3580,442,657,383,-0.062500,0.980469,0.097656,-2.240000,-3.360000,-4.480000,0.616704,-0.084096,-0.541952,,0,0,0,0,0,,,,,,,,,-65,17:03:28.176,
,,13017,3600,443,658,384,-0.062500,0.980469,0.097656,-2.240000,-3.360000,-4.480000,0.616704,-0.084096,-0.541952,,0,0,0,0,0,,,,,,,,,-65,17:03:28.205,
,,13018,3620,443,656,384,-0.125000,0.972656,0.066406,-3.360000,-4.480000,-4.480000,0.616704,-0.084096,-0.541952,,0,0,0,0,0,,,,,,,,,-65,17:03:28.207,
,,13019,3640,441,656,385,-0.125000,0.972656,0.066406,-3.360000,-4.480000,-4.480000,0.616704,-0.084096,-0.541952,,0,0,0,0,0,,,,,,,,,-65,17:03:28.237,
,,13020,3660,442,656,386,-0.125000,0.972656,0.066406,-3.360000,-4.480000,-4.480000,0.616704,-0.084096,-0.541952,,0,0,0,0,0,,,,,,,,,-65,17:03:28.267,
,,13021,3680,441,657,386,-0.144531,0.972656,0.089844,-4.480000,-5.600000,-4.480000,0.616704,-0.084096,-0.541952,,0,0,0,0,0,,,,,,,,,-65,17:03:28.297,
,,13022,3700,442,656,385,-0.144531,0.972656,0.089844,-4.480000,-5.600000,-4.480000,0.616704,-0.084096,-0.541952,,0,0,0,0,0,,,,,,,,,-65,17:03:28.298,
,,13023,3720,442,656,385,-0.144531,0.972656,0.089844,-4.480000,-5.600000,-4.480000,0.616704,-0.084096,-0.541952,,0,0,0,0,0,,,,,,,,,-65,17:03:28.327,
,,13024,3740,443,656,385,-0.144531,0.972656,0.089844,-4.480000,-5.600000,-4.480000,0.616704,-0.084096,-0.541952,,0,0,0,0,0,,,,,,,,,-65,17:03:28.357,
,,13025,3760,441,656,385,-0.089844,0.976562,0.085938,-3.360000,-4.480000,-4.480000,0.616704,-0.084096,-0.541952,,0,0,0,0,0,,,,,,,,,-65,17:03:28.359,
,,13026,3780,443,657,386,-0.089844,0.976562,0.085938,-3.360000,-4.480000,-4.480000,0.616704,-0.084096,-0.541952,,0,0,0,0,0,,,,,,,,,-65,17:03:28.387,
,,13027,3800,442,656,385,-0.089844,0.976562,0.085938,-3.360000,-4.480000,-4.480000,0.616704,-0.084096,-0.541952,,0,0,0,0,0,,,,,,,,,-65,17:03:28.418,
,,13028,3820,444,656,384,-0.089844,0.976562,0.085938,-3.360000,-4.480000,-4.480000,0.616704,-0.084096,-0.541952,,0,0,0,0,0,,,,,,,,,-65,17:03:28.419,
,,13029,3840,442,656,383,-0.101562,0.976562,0.089844,-3.360000,-3.360000,-4.480000,0.616704,-0.084096,-0.541952,,0,0,0,0,0,,,,,,,,,-65,17:03:28.447,
,,13030,3860,442,656,384,-0.101562,0.976562,0.089844,-3.360000,-3.360000,-4.480000,0.616704,-0.084096,-0.541952,,0,0,0,0,0,,,,,,,,,-65,17:03:28.449,
,,13031,3880,442,656,385,-0.101562,0.976562,0.089844,-3.360000,-3.360000,-4.480000,0.616704,-0.084096,-0.541952,,0,0,0,0,0,,,,,,,,,-65,17:03:28.476,
,,13032,3900,444,656,384,-0.101562,0.976562,0.089844,-3.360000,-3.360000,-4.480000,0.616704,-0.084096,-0.541952,,0,0,0,0,0,,,,,,,,,-65,17:03:28.507,
,,13033,3920,443,656,384,-0.117188,0.972656,0.082031,-4.480000,-3.360000,-4.480000,0.616704,-0.084096,-0.541952,,0,0,0,0,0,,,,,,,,,-65,17:03:28.508,
,,13034,3940,443,655,384,-0.117188,0.972656,0.082031,-4.480000,-3.360000,-4.480000,0.616704,-0.084096,-0.541952,,0,0,0,0,0,,,,,,,,,-65,17:03:28.536,
,,13035,3960,443,657,385,-0.117188,0.972656,0.082031,-4.480000,-3.360000,-4.480000,0.616704,-0.084096,-0.541952,,0,0,0,0,0,,,,,,,,,-65,17:03:28.567,
,,13036,3980,443,655,384,-0.117188,0.972656,0.082031,-4.480000,-3.360000,-4.480000,0.616704,-0.084096,-0.541952,,0,0,0,0,0,,,,,,,,,-65,17:03:28.569,
,,13037,4000,442,656,383,-0.121094,0.972656,0.109375,-4.480000,-4.480000,-4.480000,0.616704,-0.084096,-0.541952,,0,0,0,0,0,,,,,,,,,-65,17:03:28.596,
,,13038,4020,443,654,384,-0.121094,0.972656,0.109375,-4.480000,-4.480000,-4.480000,0.616704,-0.084096,-0.541952,,0,0,0,0,0,,,,,,,,,-65,17:03:28.627,
,,13039,4040,444,656,384,-0.121094,0.972656,0.109375,-4.480000,-4.480000,-4.480000,0.616704,-0.084096,-0.541952,,0,0,0,0,0,,,,,,,,,-65,17:03:28.628,
,,13040,4060,443,656,384,-0.121094,0.972656,0.109375,-4.480000,-4.480000,-4.480000,0.616704,-0.084096,-0.541952,,0,0,0,0,0,,,,,,,,,-65,17:03:28.658,
,,13041,4080,441,655,384,-0.105469,0.972656,0.105469,-3.360000,-4.480000,-3.360000,0.616704,-0.084096,-0.541952,,0,0,0,0,0,,,,,,,,,-65,17:03:28.687,
,,13042,4100,442,655,384,-0.105469,0.972656,0.105469,-3.360000,-4.480000,-3.360000,0.616704,-0.084096,-0.541952,,0,0,0,0,0,,,,,,,,,-65,17:03:28.688,
,,13043,4120,442,656,382,-0.105469,0.972656,0.105469,-3.360000,-4.480000,-3.360000,0.616704,-0.084096,-0.541952,,0,0,0,0,0,,,,,,,,,-65,17:03:28.716,
,,13044,4140,441,655,383,-0.105469,0.972656,0.105469,-3.360000,-4.480000,-3.360000,0.616704,-0.084096,-0.541952,,0,0,0,0,0,,,,,,,,,-65,17:03:28.748,
,,13045,4160,442,655,382,-0.062500,0.976562,0.082031,-3.360000,-4.480000,-4.480000,0.616704,-0.084096,-0.541952,,0,0,0,0,0,,,,,,,,,-65,17:03:28.749,
,,13046,4180,443,656,384,-0.062500,0.976562,0.082031,-3.360000,-4.480000,-4.480000,0.616704,-0.084096,-0.541952,,0,0,0,0,0,,,,,,,,,-65,17:03:28.776,
,,13047,4200,442,655,382,-0.062500,0.976562,0.082031,-3.360000,-4.480000,-4.480000,0.616704,-0.084096,-0.541952,,0,0,0,0,0,,,,,,,,,-65,17:03:28.807,
,,13048,4220,443,655,383,-0.113281,0.976562,0.105469,-6.720000,-4.480000,-4.480000,0.616704,-0.084096,-0.541952,,0,0,0,0,0,,,,,,,,,-65,17:03:28.809,
,,13049,4240,442,654,383,-0.113281,0.976562,0.105469,-6.720000,-4.480000,-4.480000,0.616704,-0.084096,-0.541952,,0,0,0,0,0,,,,,,,,,-65,17:03:28.837,
,,13050,4260,442,654,382,-0.113281,0.976562,0.105469,-6.720000,-4.480000,-4.480000,0.616704,-0.084096,-0.541952,,0,0,0,0,0,,,,,,,,,-65,17:03:28.867,
,,13051,4280,441,654,383,-0.113281,0.976562,0.105469,-6.720000,-4.480000,-4.480000,0.616704,-0.084096,-0.541952,,0,0,0,0,0,,,,,,,,,-65,17:03:28.869,
,,13052,4300,442,655,382,-0.152344,0.968750,0.101562,-10.080000,-1.120000,-5.600000,0.616704,-0.084096,-0.541952,,0,0,0,0,0,,,,,,,,,-65,17:03:28.897,
,,13053,4320,441,655,383,-0.152344,0.968750,0.101562,-10.080000,-1.120000,-5.600000,0.616704,-0.084096,-0.541952,,0,0,0,0,0,,,,,,,,,-65,17:03:28.927,
,,13054,4340,442,656,383,-0.152344,0.968750,0.101562,-10.080000,-1.120000,-5.600000,0.616704,-0.084096,-0.541952,,0,0,0,0,0,,,,,,,,,-65,17:03:28.929,
,,13055,4360,440,656,384,-0.152344,0.968750,0.101562,-10.080000,-1.120000,-5.600000,0.616704,-0.084096,-0.541952,,0,0,0,0,0,,,,,,,,,-65,17:03:28.957,
,,13056,4380,440,656,384,-0.128906,0.968750,0.160156,-11.200000,-1.120000,-5.600000,0.616704,-0.084096,-0.541952,,0,0,0,0,0,,,,,,,,,-65,17:03:28.987,
,,13057,4400,438,656,385,-0.128906,0.968750,0.160156,-11.200000,-1.120000,-5.600000,0.616704,-0.084096,-0.541952,,0,0,0,0,0,,,,,,,,,-65,17:03:28.988,
,,13058,4420,437,656,387,-0.128906,0.968750,0.160156,-11.200000,-1.120000,-5.600000,0.616704,-0.084096,-0.541952,,0,0,0,0,0,,,,,,,,,-65,17:03:29.017,
,,13059,4440,435,656,390,-0.128906,0.968750,0.160156,-11.200000,-1.120000,-5.600000,0.616704,-0.084096,-0.541952,,0,0,0,0,0,,,,,,,,,-65,17:03:29.047,
,,13060,4460,435,655,394,-0.093750,0.968750,0.179688,-8.960000,-2.240000,-5.600000,0.616704,-0.084096,-0.541952,,0,0,0,0,0,,,,,,,,,-65,17:03:29.048,
,,13061,4480,432,655,398,-0.093750,0.968750,0.179688,-8.960000,-2.240000,-5.600000,0.616704,-0.084096,-0.541952,,0,0,0,0,0,,,,,,,,,-65,17:03:29.076,
,,13062,4500,430,656,402,-0.093750,0.968750,0.179688,-8.960000,-2.240000,-5.600000,0.616704,-0.084096,-0.541952,,0,0,0,0,0,,,,,,,,,-65,17:03:29.107,
,,13063,4520,429,656,407,-0.093750,0.968750,0.179688,-8.960000,-2.240000,-5.600000,0.616704,-0.084096,-0.541952,,0,0,0,0,0,,,,,,,,,-65,17:03:29.108,
,,13064,4540,426,656,413,-0.085938,0.972656,0.148438,-5.600000,-1.120000,-5.600000,0.616704,-0.084096,-0.541952,,0,0,0,0,0,,,,,,,,,-65,17:03:29.136,
,,13065,4560,425,657,418,-0.085938,0.972656,0.148438,-5.600000,-1.120000,-5.600000,0.616704,-0.084096,-0.541952,,0,0,0,0,0,,,,,,,,,-65,17:03:29.167,
,,13066,4580,421,656,422,-0.085938,0.972656,0.148438,-5.600000,-1.120000,-5.600000,0.616704,-0.084096,-0.541952,,0,0,0,0,0,,,,,,,,,-65,17:03:29.169,
,,13067,4600,420,656,425,-0.085938,0.972656,0.148438,-5.600000,-1.120000,-5.600000,0.616704,-0.084096,-0.541952,,0,0,0,0,0,,,,,,,,,-65,17:03:29.196,
,,13068,4620,415,654,428,-0.125000,0.964844,0.152344,-4.480000,-2.240000,-4.480000,0.616704,-0.084096,-0.541952,,0,0,0,0,0,,,,,,,,,-65,17:03:29.226,
,,13069,4640,414,658,427,-0.125000,0.964844,0.152344,-4.480000,-2.240000,-4.480000,0.616704,-0.084096,-0.541952,,0,0,0,0,0,,,,,,,,,-65,17:03:29.227,
,,13070,4660,412,657,430,-0.125000,0.964844,0.152344,-4.480000,-2.240000,-4.480000,0.616704,-0.084096,-0.541952,,0,0,0,0,0,,,,,,,,,-65,17:03:29.257,
,,13071,4680,410,655,432,-0.164062,0.960938,0.156250,-3.360000,-2.240000,-4.480000,0.616704,-0.084096,-0.541952,,0,0,0,0,0,,,,,,,,,-65,17:03:29.287,
,,13072,4700,410,655,432,-0.164062,0.960938,0.156250,-3.360000,-2.240000,-4.480000,0.616704,-0.084096,-0.541952,,0,0,0,0,0,,,,,,,,,-65,17:03:29.288,
,,13073,4720,408,658,433,-0.164062,0.960938,0.156250,-3.360000,-2.240000,-4.480000,0.616704,-0.084096,-0.541952,,0,0,0,0,0,,,,,,,,,-65,17:03:29.316,
,,13074,4740,404,657,432,-0.164062,0.960938,0.156250,-3.360000,-2.240000,-4.480000,0.616704,-0.084096,-0.541952,,0,0,0,0,0,,,,,,,,,-65,17:03:29.346,
,,13075,4760,403,659,432,-0.179688,0.960938,0.160156,-1.120000,-5.600000,-4.480000,0.616704,-0.084096,-0.541952,,0,0,0,0,0,,,,,,,,,-65,17:03:29.377,
,,13076,4780,402,659,434,-0.179688,0.960938,0.160156,-1.120000,-5.600000,-4.480000,0.616704,-0.084096,-0.541952,,0,0,0,0,0,,,,,,,,,-65,17:03:29.378,
,,13077,4800,402,660,432,-0.179688,0.960938,0.160156,-1.120000,-5.600000,-4.480000,0.616704,-0.084096,-0.541952,,0,0,0,0,0,,,,,,,,,-65,17:03:29.407,
,,13078,4820,402,661,434,-0.179688,0.960938,0.160156,-1.120000,-5.600000,-4.480000,0.598016,-0.093440,-0.569984,,0,0,0,0,0,,,,,,,,,-65,17:03:29.408,
,,13079,4840,402,662,436,-0.148438,0.964844,0.117188,3.360000,-7.840000,-4.480000,0.598016,-0.093440,-0.569984,,0,0,0,0,0,,,,,,,,,-65,17:03:29.436,
,,13080,4860,403,664,437,-0.148438,0.964844,0.117188,3.360000,-7.840000,-4.480000,0.598016,-0.093440,-0.569984,,0,0,0,0,0,,,,,,,,,-65,17:03:29.467,
,,13081,4880,404,664,437,-0.148438,0.964844,0.117188,3.360000,-7.840000,-4.480000,0.598016,-0.093440,-0.569984,,0,0,0,0,0,,,,,,,,,-65,17:03:29.468,
,,13082,4900,405,662,437,-0.011719,0.976562,0.117188,2.240000,-8.960000,-5.600000,0.598016,-0.093440,-0.569984,,0,0,0,0,0,,,,,,,,,-65,17:03:29.497,
,,13083,4920,406,663,435,-0.011719,0.976562,0.117188,2.240000,-8.960000,-5.600000,0.598016,-0.093440,-0.569984,,0,0,0,0,0,,,,,,,,,-65,17:03:29.527,
,,13084,4940,406,664,433,-0.011719,0.976562,0.117188,2.240000,-8.960000,-5.600000,0.598016,-0.093440,-0.569984,,0,0,0,0,0,,,,,,,,,-65,17:03:29.528,
,,13085,4960,407,666,432,-0.011719,0.976562,0.117188,2.240000,-8.960000,-5.600000,0.598016,-0.093440,-0.569984,,0,0,0,0,0,,,,,,,,,-65,17:03:29.557,
,,13086,4980,409,666,429,-0.140625,0.968750,0.148438,-1.120000,-7.840000,-5.600000,0.598016,-0.093440,-0.569984,,0,0,0,0,0,,,,,,,,,-65,17:03:29.587,
,,13087,5000,407,664,428,-0.140625,0.968750,0.148438,-1.120000,-7.840000,-5.600000,0.598016,-0.093440,-0.569984,,0,0,0,0,0,,,,,,,,,-65,17:03:29.588,
,,13088,5020,409,665,428,-0.140625,0.968750,0.148438,-1.120000,-7.840000,-5.600000,0.598016,-0.093440,-0.569984,,0,0,0,0,0,,,,,,,,,-65,17:03:29.616,
,,13089,5040,409,665,425,-0.140625,0.968750,0.148438,-1.120000,-7.840000,-5.600000,0.598016,-0.093440,-0.569984,,0,0,0,0,0,,,,,,,,,-65,17:03:29.647,
,,13090,5060,410,665,424,-0.148438,0.968750,0.117188,-3.360000,-5.600000,-6.720000,0.598016,-0.093440,-0.569984,,0,0,0,0,0,,,,,,,,,-65,17:03:29.648,
,,13091,5080,410,666,423,-0.148438,0.968750,0.117188,-3.360000,-5.600000,-6.720000,0.598016,-0.093440,-0.569984,,0,0,0,0,0,,,,,,,,,-65,17:03:29.677,
,,13092,5100,412,666,422,-0.148438,0.968750,0.117188,-3.360000,-5.600000,-6.720000,0.598016,-0.093440,-0.569984,,0,0,0,0,0,,,,,,,,,-65,17:03:29.707,
,,13093,5120,413,666,423,-0.148438,0.968750,0.117188,-3.360000,-5.600000,-6.720000,0.598016,-0.093440,-0.569984,,0,0,0,0,0,,,,,,,,,-65,17:03:29.708,
,,13094,5140,413,666,423,-0.117188,0.972656,0.152344,-10.080000,-3.360000,-5.600000,0.598016,-0.093440,-0.569984,,0,0,0,0,0,,,,,,,,,-65,17:03:29.736,
,,13095,5160,414,668,424,-0.117188,0.972656,0.152344,-10.080000,-3.360000,-5.600000,0.598016,-0.093440,-0.569984,,0,0,0,0,0,,,,,,,,,-65,17:03:29.767,
,,13096,5180,413,667,427,-0.117188,0.972656,0.152344,-10.080000,-3.360000,-5.600000,0.598016,-0.093440,-0.569984,,0,0,0,0,0,,,,,,,,,-65,17:03:29.768,
,,13097,5200,414,667,437,-0.117188,0.972656,0.152344,-10.080000,-3.360000,-5.600000,0.598016,-0.093440,-0.569984,,0,0,0,0,0,,,,,,,,,-65,17:03:29.796,
,,13098,5220,415,669,453,-0.015625,0.992188,0.140625,-15.680000,-3.360000,-6.720000,0.598016,-0.093440,-0.569984,,0,0,0,0,0,,,,,,,,,-65,17:03:29.826,
,,13099,5240,417,669,477,-0.015625,0.992188,0.140625,-15.680000,-3.360000,-6.720000,0.598016,-0.093440,-0.569984,,0,0,0,0,0,,,,,,,,,-65,17:03:29.828,
,,13100,5260,421,673,497,-0.015625,0.992188,0.140625,-15.680000,-3.360000,-6.720000,0.598016,-0.093440,-0.569984,,0,0,0,0,0,,,,,,,,,-65,17:03:29.856,
,,13101,5280,423,673,513,-0.015625,0.992188,0.140625,-15.680000,-3.360000,-6.720000,0.598016,-0.093440,-0.569984,,0,0,0,0,0,,,,,,,,,-65,17:03:29.887,
,,13102,5300,425,674,523,0.078125,1.062500,0.054688,-20.160000,-11.200000,-11.200000,0.598016,-0.093440,-0.569984,,0,0,0,0,0,,,,,,,,,-65,17:03:29.888,
,,13103,5320,432,677,529,0.078125,1.062500,0.054688,-20.160000,-11.200000,-11.200000,0.598016,-0.093440,-0.569984,,0,0,0,0,0,,,,,,,,,-65,17:03:29.916,
,,13104,5340,440,678,534,0.078125,1.062500,0.054688,-20.160000,-11.200000,-11.200000,0.598016,-0.093440,-0.569984,,0,0,0,0,0,,,,,,,,,-65,17:03:29.944,
,,13105,5360,449,679,535,0.078125,1.062500,0.054688,-20.160000,-11.200000,-11.200000,0.598016,-0.093440,-0.569984,,0,0,0,0,0,,,,,,,,,-65,17:03:29.946,
,,13106,5380,456,686,537,0.148438,1.136719,-0.187500,10.080000,-81.760002,-25.760000,0.598016,-0.093440,-0.569984,,0,0,0,0,0,,,,,,,,,-65,17:03:29.977,
,,13107,5400,462,689,536,0.148438,1.136719,-0.187500,10.080000,-81.760002,-25.760000,0.598016,-0.093440,-0.569984,,0,0,0,0,0,,,,,,,,,-65,17:03:30.006,
,,13108,5420,462,691,538,0.148438,1.136719,-0.187500,10.080000,-81.760002,-25.760000,0.598016,-0.093440,-0.569984,,0,0,0,0,0,,,,,,,,,-65,17:03:30.008,
,,13109,5440,466,691,537,-0.078125,1.089844,0.019531,60.480000,-194.880005,-32.480000,0.598016,-0.093440,-0.569984,,0,0,0,0,0,,,,,,,,,-65,17:03:30.036,
,,13110,5460,466,693,537,-0.078125,1.089844,0.019531,60.480000,-194.880005,-32.480000,0.598016,-0.093440,-0.569984,,0,0,0,0,0,,,,,,,,,-65,17:03:30.067,
,,13111,5480,467,695,537,-0.078125,1.089844,0.019531,60.480000,-194.880005,-32.480000,0.598016,-0.093440,-0.569984,,0,0,0,0,0,,,,,,,,,-65,17:03:30.068,
,,13112,5500,468,694,534,-0.078125,1.089844,0.019531,60.480000,-194.880005,-32.480000,0.598016,-0.093440,-0.569984,,0,0,0,0,0,,,,,,,,,-65,17:03:30.096,
,,13113,5520,469,694,532,0.246094,0.871094,0.390625,92.959999,-159.039993,1.120000,0.598016,-0.093440,-0.569984,,0,0,0,0,0,,,,,,,,,-65,17:03:30.127,
,,13114,5540,470,694,532,0.246094,0.871094,0.390625,92.959999,-159.039993,1.120000,0.598016,-0.093440,-0.569984,,0,0,0,0,0,,,,,,,,,-65,17:03:30.128,
,,13115,5560,470,696,530,0.246094,0.871094,0.390625,92.959999,-159.039993,1.120000,0.598016,-0.093440,-0.569984,,0,0,0,0,0,,,,,,,,,-65,17:03:30.156,
,,13116,5580,473,697,528,0.246094,0.871094,0.390625,92.959999,-159.039993,1.120000,0.598016,-0.093440,-0.569984,,0,0,0,0,0,,,,,,,,,-65,17:03:30.187,
,,13117,5600,472,696,525,0.230469,0.828125,0.375000,71.680000,-60.480000,24.639999,0.598016,-0.093440,-0.569984,,0,0,0,0,0,,,,,,,,,-65,17:03:30.188,
,,13118,5620,473,697,524,0.230469,0.828125,0.375000,71.680000,-60.480000,24.639999,0.598016,-0.093440,-0.569984,,0,0,0,0,0,,,,,,,,,-65,17:03:30.217,
,,13119,5640,474,698,523,0.230469,0.828125,0.375000,71.680000,-60.480000,24.639999,0.598016,-0.093440,-0.569984,,0,0,0,0,0,,,,,,,,,-65,17:03:30.247,
,,13120,5660,476,699,521,0.230469,0.828125,0.375000,71.680000,-60.480000,24.639999,0.598016,-0.093440,-0.569984,,0,0,0,0,0,,,,,,,,,-65,17:03:30.248,
,,13121,5680,475,699,520,0.195312,1.027344,0.324219,33.599998,-35.840000,30.240000,0.598016,-0.093440,-0.569984,,0,0,0,0,0,,,,,,,,,-65,17:03:30.276,
,,13122,5700,475,700,517,0.195312,1.027344,0.324219,33.599998,-35.840000,30.240000,0.598016,-0.093440,-0.569984,,0,0,0,0,0,,,,,,,,,-72,17:03:30.307,
,,13123,5720,479,701,513,0.195312,1.027344,0.324219,33.599998,-35.840000,30.240000,0.598016,-0.093440,-0.569984,,0,0,0,0,0,,,,,,,,,-72,17:03:30.308,
,,13124,5740,478,702,511,0.195312,1.027344,0.324219,33.599998,-35.840000,30.240000,0.598016,-0.093440,-0.569984,,0,0,0,0,0,,,,,,,,,-72,17:03:30.336,
,,13125,5760,481,700,504,0.187500,0.960938,0.160156,3.360000,-31.360001,2.240000,0.598016,-0.093440,-0.569984,,0,0,0,0,0,,,,,,,,,-72,17:03:30.366,
,,13126,5780,483,702,493,0.187500,0.960938,0.160156,3.360000,-31.360001,2.240000,0.598016,-0.093440,-0.569984,,0,0,0,0,0,,,,,,,,,-72,17:03:30.368,
,,13127,5800,484,703,485,0.187500,0.960938,0.160156,3.360000,-31.360001,2.240000,0.598016,-0.093440,-0.569984,,0,0,0,0,0,,,,,,,,,-72,17:03:30.396,
,,13128,5820,486,704,470,0.187500,0.960938,0.160156,3.360000,-31.360001,2.240000,0.598016,-0.093440,-0.569984,,0,0,0,0,0,,,,,,,,,-72,17:03:30.427,
,,13129,5840,486,705,440,-0.042969,0.953125,0.011719,-11.200000,-71.680000,-23.520000,0.598016,-0.093440,-0.569984,,0,0,0,0,0,,,,,,,,,-72,17:03:30.428,
,,13130,5860,485,704,407,-0.042969,0.953125,0.011719,-11.200000,-71.680000,-23.520000,0.598016,-0.093440,-0.569984,,0,0,0,0,0,,,,,,,,,-72,17:03:30.456,
,,13131,5880,481,704,376,-0.042969,0.953125,0.011719,-11.200000,-71.680000,-23.520000,0.598016,-0.093440,-0.569984,,0,0,0,0,0,,,,,,,,,-72,17:03:30.486,
,,13132,5900,474,703,333,-0.031250,1.101562,-0.039062,0.000000,-61.599998,-42.560001,0.598016,-0.093440,-0.569984,,0,0,0,0,0,,,,,,,,,-72,17:03:30.488,
,,13133,5920,470,702,320,-0.031250,1.101562,-0.039062,0.000000,-61.599998,-42.560001,0.598016,-0.093440,-0.569984,,0,0,0,0,0,,,,,,,,,-72,17:03:30.516,
,,13134,5940,465,699,306,-0.031250,1.101562,-0.039062,0.000000,-61.599998,-42.560001,0.598016,-0.093440,-0.569984,,0,0,0,0,0,,,,,,,,,-72,17:03:30.547,
,,13135,5960,463,697,296,-0.031250,1.101562,-0.039062,0.000000,-61.599998,-42.560001,0.598016,-0.093440,-0.569984,,0,0,0,0,0,,,,,,,,,-72,17:03:30.549,
,,13136,5980,462,696,290,-0.058594,1.007812,0.093750,12.320000,-13.440001,-15.680000,0.598016,-0.093440,-0.569984,,0,0,0,0,0,,,,,,,,,-72,17:03:30.576,
,,13137,6000,460,696,285,-0.058594,1.007812,0.093750,12.320000,-13.440001,-15.680000,0.598016,-0.093440,-0.569984,,0,0,0,0,0,,,,,,,,,-72,17:03:30.607,
,,13138,6020,460,694,285,-0.058594,1.007812,0.093750,12.320000,-13.440001,-15.680000,0.598016,-0.093440,-0.569984,,0,0,0,0,0,,,,,,,,,-72,17:03:30.608,
,,13139,6040,458,694,286,-0.058594,1.007812,0.093750,12.320000,-13.440001,-15.680000,0.598016,-0.093440,-0.569984,,0,0,0,0,0,,,,,,,,,-72,17:03:30.636,
,,13140,6060,457,691,287,-0.246094,0.894531,-0.261719,14.560000,5.600000,-2.240000,0.598016,-0.093440,-0.569984,,0,0,0,0,0,,,,,,,,,-72,17:03:30.666,
,,13141,6080,457,690,287,-0.246094,0.894531,-0.261719,14.560000,5.600000,-2.240000,0.598016,-0.093440,-0.569984,,0,0,0,0,0,,,,,,,,,-72,17:03:30.668,
,,13142,6100,458,688,288,-0.246094,0.894531,-0.261719,14.560000,5.600000,-2.240000,0.598016,-0.093440,-0.569984,,0,0,0,0,0,,,,,,,,,-72,17:03:30.697,
,,13143,6120,457,687,287,-0.246094,0.894531,-0.261719,14.560000,5.600000,-2.240000,0.598016,-0.093440,-0.569984,,0,0,0,0,0,,,,,,,,,-72,17:03:30.727,
,,13144,6140,459,685,289,0.062500,1.007812,-0.175781,-3.360000,6.720000,-1.120000,0.598016,-0.093440,-0.569984,,0,0,0,0,0,,,,,,,,,-72,17:03:30.728,
,,13145,6160,459,687,287,0.062500,1.007812,-0.175781,-3.360000,6.720000,-1.120000,0.598016,-0.093440,-0.569984,,0,0,0,0,0,,,,,,,,,-72,17:03:30.756,
,,13146,6180,463,685,287,0.062500,1.007812,-0.175781,-3.360000,6.720000,-1.120000,0.598016,-0.093440,-0.569984,,0,0,0,0,0,,,,,,,,,-72,17:03:30.787,
,,13147,6200,464,684,285,0.062500,1.007812,-0.175781,-20.160000,2.240000,-3.360000,0.598016,-0.093440,-0.569984,,0,0,0,0,0,,,,,,,,,-72,17:03:30.789,
,,13148,6220,466,683,285,-0.101562,0.925781,-0.175781,-20.160000,2.240000,-3.360000,0.598016,-0.093440,-0.569984,,0,0,0,0,0,,,,,,,,,-72,17:03:30.817,
,,13149,6240,465,684,282,-0.101562,0.925781,-0.175781,-20.160000,2.240000,-3.360000,0.598016,-0.093440,-0.569984,,0,0,0,0,0,,,,,,,,,-72,17:03:30.847,
,,13150,6260,468,681,282,-0.101562,0.925781,-0.175781,-20.160000,2.240000,-3.360000,0.598016,-0.093440,-0.569984,,0,0,0,0,0,,,,,,,,,-72,17:03:30.848,
,,13151,6280,466,679,284,-0.132812,0.980469,0.058594,-22.400000,-4.480000,-5.600000,0.598016,-0.093440,-0.569984,,0,0,0,0,0,,,,,,,,,-72,17:03:30.877,
,,13152,6300,467,678,282,-0.132812,0.980469,0.058594,-22.400000,-4.480000,-5.600000,0.598016,-0.093440,-0.569984,,0,0,0,0,0,,,,,,,,,-72,17:03:30.907,
,,13153,6320,469,677,285,-0.132812,0.980469,0.058594,-22.400000,-4.480000,-5.600000,0.598016,-0.093440,-0.569984,,0,0,0,0,0,,,,,,,,,-72,17:03:30.908,
,,13154,6340,469,675,283,-0.132812,0.980469,0.058594,-22.400000,-4.480000,-5.600000,0.598016,-0.093440,-0.569984,,0,0,0,0,0,,,,,,,,,-72,17:03:30.936,
,,13155,6360,469,675,286,-0.089844,0.855469,-0.113281,-14.560000,-4.480000,-5.600000,0.598016,-0.093440,-0.569984,,0,0,0,0,0,,,,,,,,,-72,17:03:30.967,
,,13156,6380,471,672,287,-0.089844,0.855469,-0.113281,-14.560000,-4.480000,-5.600000,0.598016,-0.093440,-0.569984,,0,0,0,0,0,,,,,,,,,-72,17:03:30.968,
,,13157,6400,472,674,287,-0.089844,0.855469,-0.113281,-14.560000,-4.480000,-5.600000,0.598016,-0.093440,-0.569984,,0,0,0,0,0,,,,,,,,,-72,17:03:30.996,
,,13158,6420,472,671,288,-0.089844,0.855469,-0.113281,-14.560000,-4.480000,-5.600000,0.738176,0.000000,-0.411136,,0,0,0,0,0,,,,,,,,,-72,17:03:31.027,
,,13159,6440,471,669,288,-0.062500,0.984375,-0.140625,-17.920000,-13.440001,-11.200000,0.738176,0.000000,-0.411136,,0,0,0,0,0,,,,,,,,,-72,17:03:31.028,
,,13160,6460,472,670,292,-0.062500,0.984375,-0.140625,-17.920000,-13.440001,-11.200000,0.738176,0.000000,-0.411136,,0,0,0,0,0,,,,,,,,,-72,17:03:31.056,
,,13161,6480,472,666,295,-0.062500,0.984375,-0.140625,-17.920000,-13.440001,-11.200000,0.738176,0.000000,-0.411136,,0,0,0,0,0,,,,,,,,,-72,17:03:31.087,
,,13162,6500,473,666,296,-0.062500,0.984375,-0.140625,-17.920000,-13.440001,-11.200000,0.738176,0.000000,-0.411136,,0,0,0,0,0,,,,,,,,,-72,17:03:31.088,
,,13163,6520,473,664,301,-0.136719,0.941406,0.027344,-28.000000,-24.639999,-15.680000,0.738176,0.000000,-0.411136,,0,0,0,0,0,,,,,,,,,-72,17:03:31.116,
,,13164,6540,472,663,304,-0.136719,0.941406,0.027344,-28.000000,-24.639999,-15.680000,0.738176,0.000000,-0.411136,,0,0,0,0,0,,,,,,,,,-72,17:03:31.147,
,,13165,6560,473,663,306,-0.136719,0.941406,0.027344,-28.000000,-24.639999,-15.680000,0.738176,0.000000,-0.411136,,0,0,0,0,0,,,,,,,,,-72,17:03:31.149,
,,13166,6580,471,664,307,-0.136719,0.941406,0.027344,-28.000000,-24.639999,-15.680000,0.738176,0.000000,-0.411136,,0,0,0,0,0,,,,,,,,,-72,17:03:31.176,
,,13167,6600,470,666,307,-0.265625,0.925781,-0.066406,-32.480000,-30.240000,-23.520000,0.738176,0.000000,-0.411136,,0,0,0,0,0,,,,,,,,,-72,17:03:31.206,
,,13168,6620,468,665,306,-0.265625,0.925781,-0.066406,-32.480000,-30.240000,-23.520000,0.738176,0.000000,-0.411136,,0,0,0,0,0,,,,,,,,,-72,17:03:31.208,
,,13169,6640,461,668,307,-0.265625,0.925781,-0.066406,-32.480000,-30.240000,-23.520000,0.738176,0.000000,-0.411136,,0,0,0,0,0,,,,,,,,,-72,17:03:31.236,
,,13170,6660,454,669,305,-0.265625,0.894531,0.046875,-54.880001,-35.840000,-40.320000,0.738176,0.000000,-0.411136,,0,0,0,0,0,,,,,,,,,-72,17:03:31.267,
,,13171,6680,446,672,304,-0.359375,0.890625,0.046875,-54.880001,-35.840000,-40.320000,0.738176,0.000000,-0.411136,,0,0,0,0,0,,,,,,,,,-72,17:03:31.268,
,,13172,6700,437,673,304,-0.359375,0.890625,0.046875,-54.880001,-35.840000,-40.320000,0.738176,0.000000,-0.411136,,0,0,0,0,0,,,,,,,,,-72,17:03:31.296,
,,13173,6720,426,673,314,-0.359375,0.890625,0.046875,-54.880001,-35.840000,-40.320000,0.738176,0.000000,-0.411136,,0,0,0,0,0,,,,,,,,,-72,17:03:31.357,
,,13174,6740,418,671,339,-0.265625,0.964844,0.058594,-81.760002,-15.680000,-31.360001,0.738176,0.000000,-0.411136,,0,0,0,0,0,,,,,,,,,-72,17:03:31.358,
,,13175,6760,409,671,393,-0.265625,0.964844,0.058594,-81.760002,-15.680000,-31.360001,0.738176,0.000000,-0.411136,,0,0,0,0,0,,,,,,,,,-72,17:03:31.360,
,,13176,6780,409,671,472,-0.265625,0.964844,0.058594,-81.760002,-15.680000,-31.360001,0.738176,0.000000,-0.411136,,0,0,0,0,0,,,,,,,,,-72,17:03:31.387,
,,13177,6800,420,671,523,-0.265625,0.964844,0.058594,-81.760002,-15.680000,-31.360001,0.738176,0.000000,-0.411136,,0,0,0,0,0,,,,,,,,,-72,17:03:31.388,
,,13178,6820,438,674,551,0.054688,1.589844,0.363281,-100.800003,1.120000,-6.720000,0.738176,0.000000,-0.411136,,0,0,0,0,0,,,,,,,,,-72,17:03:31.417,
,,13179,6840,457,680,566,0.054688,1.589844,0.363281,-100.800003,1.120000,-6.720000,0.738176,0.000000,-0.411136,,0,0,0,0,0,,,,,,,,,-72,17:03:31.447,
,,13180,6860,469,682,574,0.054688,1.589844,0.363281,-100.800003,1.120000,-6.720000,0.738176,0.000000,-0.411136,,0,0,0,0,0,,,,,,,,,-72,17:03:31.448,
,,13181,6880,474,683,581,0.054688,1.589844,0.363281,-100.800003,1.120000,-6.720000,0.738176,0.000000,-0.411136,,0,0,0,0,0,,,,,,,,,-72,17:03:31.476,
,,13182,6900,480,685,586,-0.953125,1.406250,-0.773438,-45.920002,-19.040001,-135.520004,0.738176,0.000000,-0.411136,,0,0,0,0,0,,,,,,,,,-72,17:03:31.507,
,,13183,6920,484,688,594,-0.953125,1.406250,-0.773438,-45.920002,-19.040001,-135.520004,0.738176,0.000000,-0.411136,,0,0,0,0,0,,,,,,,,,-72,17:03:31.508,
,,13184,6940,490,687,599,-0.953125,1.406250,-0.773438,-45.920002,-19.040001,-135.520004,0.738176,0.000000,-0.411136,,0,0,0,0,0,,,,,,,,,-72,17:03:31.536,
,,13185,6960,493,689,603,-0.953125,1.406250,-0.773438,-45.920002,-19.040001,-135.520004,0.738176,0.000000,-0.411136,,0,0,0,0,0,,,,,,,,,-72,17:03:31.567,
,,13186,6980,497,692,606,-0.253906,0.960938,-0.265625,14.560000,89.599998,-178.080002,0.738176,0.000000,-0.411136,,0,0,0,0,0,,,,,,,,,-72,17:03:31.568,
,,13187,7000,500,692,605,-0.253906,0.960938,-0.265625,14.560000,89.599998,-178.080002,0.738176,0.000000,-0.411136,,0,0,0,0,0,,,,,,,,,-72,17:03:31.596,
,,13188,7020,504,693,606,-0.253906,0.960938,-0.265625,14.560000,89.599998,-178.080002,0.738176,0.000000,-0.411136,,0,0,0,0,0,,,,,,,,,-72,17:03:31.627,
,,13189,7040,506,692,605,-0.035156,0.644531,-0.003906,45.920002,98.559998,-95.199997,0.738176,0.000000,-0.411136,,0,0,0,0,0,,,,,,,,,-72,17:03:31.628,
,,13190,7060,507,692,602,-0.035156,0.644531,-0.003906,45.920002,98.559998,-95.199997,0.738176,0.000000,-0.411136,,0,0,0,0,0,,,,,,,,,-72,17:03:31.656,
,,13191,7080,509,693,601,-0.035156,0.644531,-0.003906,45.920002,98.559998,-95.199997,0.738176,0.000000,-0.411136,,0,0,0,0,0,,,,,,,,,-72,17:03:31.687,
,,13192,7100,510,692,602,-0.035156,0.644531,-0.003906,45.920002,98.559998,-95.199997,0.738176,0.000000,-0.411136,,0,0,0,0,0,,,,,,,,,-72,17:03:31.688,
,,13193,7120,510,693,599,0.031250,0.625000,0.214844,58.240002,68.320000,-12.320000,0.738176,0.000000,-0.411136,,0,0,0,0,0,,,,,,,,,-72,17:03:31.716,
,,13194,7140,510,694,600,0.031250,0.625000,0.214844,58.240002,68.320000,-12.320000,0.738176,0.000000,-0.411136,,0,0,0,0,0,,,,,,,,,-72,17:03:31.747,
,,13195,7160,510,693,598,0.031250,0.625000,0.214844,58.240002,68.320000,-12.320000,0.738176,0.000000,-0.411136,,0,0,0,0,0,,,,,,,,,-72,17:03:31.749,
,,13196,7180,511,696,598,0.031250,0.625000,0.214844,58.240002,68.320000,-12.320000,0.738176,0.000000,-0.411136,,0,0,0,0,0,,,,,,,,,-72,17:03:31.776,
,,13197,7200,510,697,594,-0.007812,0.769531,0.312500,68.320000,87.360001,90.720001,0.738176,0.000000,-0.411136,,0,0,0,0,0,,,,,,,,,-72,17:03:31.807,
,,13198,7220,509,698,593,-0.007812,0.769531,0.312500,68.320000,87.360001,90.720001,0.738176,0.000000,-0.411136,,0,0,0,0,0,,,,,,,,,-72,17:03:31.808,
,,13199,7240,508,700,591,-0.007812,0.769531,0.312500,68.320000,87.360001,90.720001,0.738176,0.000000,-0.411136,,0,0,0,0,0,,,,,,,,,-72,17:03:31.836,
,,13200,7260,509,703,587,-0.007812,0.769531,0.312500,68.320000,87.360001,90.720001,0.738176,0.000000,-0.411136,,0,0,0,0,0,,,,,,,,,-72,17:03:31.867,
,,13201,7280,508,703,584,-0.101562,1.167969,0.210938,61.599998,66.080002,184.800003,0.738176,0.000000,-0.411136,,0,0,0,0,0,,,,,,,,,-72,17:03:31.868,
,,13202,7300,507,707,584,-0.101562,1.167969,0.210938,61.599998,66.080002,184.800003,0.738176,0.000000,-0.411136,,0,0,0,0,0,,,,,,,,,-72,17:03:31.896,
,,13203,7320,507,706,581,-0.101562,1.167969,0.210938,61.599998,66.080002,184.800003,0.738176,0.000000,-0.411136,,0,0,0,0,0,,,,,,,,,-72,17:03:31.927,
,,13204,7340,506,706,579,-0.101562,1.167969,0.210938,61.599998,66.080002,184.800003,0.738176,0.000000,-0.411136,,0,0,0,0,0,,,,,,,,,-72,17:03:31.928,
,,13205,7360,506,707,578,-0.253906,1.496094,0.300781,52.639999,-13.440001,203.839996,0.738176,0.000000,-0.411136,,0,0,0,0,0,,,,,,,,,-72,17:03:31.956,
,,13206,7380,505,707,576,-0.253906,1.496094,0.300781,52.639999,-13.440001,203.839996,0.738176,0.000000,-0.411136,,0,0,0,0,0,,,,,,,,,-72,17:03:31.987,
,,13207,7400,503,708,574,-0.253906,1.496094,0.300781,52.639999,-13.440001,203.839996,0.738176,0.000000,-0.411136,,0,0,0,0,0,,,,,,,,,-72,17:03:31.988,
,,13208,7420,505,707,571,-0.253906,1.496094,0.300781,52.639999,-13.440001,203.839996,0.738176,0.000000,-0.411136,,0,0,0,0,0,,,,,,,,,-72,17:03:32.016,
,,13209,7440,505,708,572,-0.429688,1.441406,0.425781,21.280001,-42.560001,136.639999,0.738176,0.000000,-0.411136,,0,0,0,0,0,,,,,,,,,-72,17:03:32.047,
,,13210,7460,505,708,569,-0.429688,1.441406,0.425781,21.280001,-42.560001,136.639999,0.738176,0.000000,-0.411136,,0,0,0,0,0,,,,,,,,,-72,17:03:32.048,
,,13211,7480,505,707,561,-0.429688,1.441406,0.425781,21.280001,-42.560001,136.639999,0.738176,0.000000,-0.411136,,0,0,0,0,0,,,,,,,,,-72,17:03:32.077,
,,13212,7500,506,707,549,-0.691406,1.023438,0.296875,-12.320000,-42.560001,38.080002,0.738176,0.000000,-0.411136,,0,0,0,0,0,,,,,,,,,-72,17:03:32.107,
,,13213,7520,507,707,521,-0.691406,1.023438,0.296875,-12.320000,-42.560001,38.080002,0.738176,0.000000,-0.411136,,0,0,0,0,0,,,,,,,,,-72,17:03:32.108,
,,13214,7540,506,707,457,-0.691406,1.023438,0.296875,-12.320000,-42.560001,38.080002,0.738176,0.000000,-0.411136,,0,0,0,0,0,,,,,,,,,-72,17:03:32.136,
,,13215,7560,502,707,411,-0.691406,1.023438,0.296875,-12.320000,-42.560001,38.080002,0.738176,0.000000,-0.411136,,0,0,0,0,0,,,,,,,,,-72,17:03:32.167,
,,13216,7580,494,704,366,-0.175781,0.933594,-0.078125,-22.400000,-86.239998,-50.400002,0.738176,0.000000,-0.411136,,0,0,0,0,0,,,,,,,,,-72,17:03:32.168,
,,13217,7600,488,702,336,-0.175781,0.933594,-0.078125,-22.400000,-86.239998,-50.400002,0.738176,0.000000,-0.411136,,0,0,0,0,0,,,,,,,,,-72,17:03:32.196,
,,13218,7620,482,700,316,-0.175781,0.933594,-0.078125,-22.400000,-86.239998,-50.400002,0.738176,0.000000,-0.411136,,0,0,0,0,0,,,,,,,,,-72,17:03:32.227,
,,13219,7640,478,699,304,-0.175781,0.933594,-0.078125,-22.400000,-86.239998,-50.400002,0.738176,0.000000,-0.411136,,0,0,0,0,0,,,,,,,,,-72,17:03:32.228,
,,13220,7660,476,696,297,-0.339844,0.949219,-0.082031,-7.840000,-51.520000,-22.400000,0.738176,0.000000,-0.411136,,0,0,0,0,0,,,,,,,,,-72,17:03:32.256,
,,13221,7680,474,694,294,-0.339844,0.949219,-0.082031,-7.840000,-51.520000,-22.400000,0.738176,0.000000,-0.411136,,0,0,0,0,0,,,,,,,,,-72,17:03:32.286,
,,13222,7700,472,693,293,-0.339844,0.949219,-0.082031,-7.840000,-51.520000,-22.400000,0.738176,0.000000,-0.411136,,0,0,0,0,0,,,,,,,,,-72,17:03:32.288,
,,13223,7720,469,693,296,-0.339844,0.949219,-0.082031,-7.840000,-51.520000,-22.400000,0.738176,0.000000,-0.411136,,0,0,0,0,0,,,,,,,,,-72,17:03:32.316,
,,13224,7740,469,691,300,-0.011719,0.910156,-0.089844,-2.240000,-22.400000,-2.240000,0.738176,0.000000,-0.411136,,0,0,0,0,0,,,,,,,,,-72,17:03:32.346,
,,13225,7760,469,689,303,-0.011719,0.910156,-0.089844,-2.240000,-22.400000,-2.240000,0.738176,0.000000,-0.411136,,0,0,0,0,0,,,,,,,,,-72,17:03:32.348,
,,13226,7780,470,688,310,-0.011719,0.910156,-0.089844,-2.240000,-22.400000,-2.240000,0.738176,0.000000,-0.411136,,0,0,0,0,0,,,,,,,,,-72,17:03:32.376,
,,13227,7800,471,685,317,-0.011719,0.910156,-0.089844,-2.240000,-22.400000,-2.240000,0.738176,0.000000,-0.411136,,0,0,0,0,0,,,,,,,,,-72,17:03:32.407,
,,13228,7820,472,684,326,-0.054688,0.906250,-0.230469,-7.840000,-12.320000,6.720000,0.738176,0.000000,-0.411136,,0,0,0,0,0,,,,,,,,,-72,17:03:32.408,
,,13229,7840,473,680,329,-0.054688,0.906250,-0.230469,-7.840000,-12.320000,6.720000,0.738176,0.000000,-0.411136,,0,0,0,0,0,,,,,,,,,-72,17:03:32.436,
,,13230,7860,475,679,331,-0.054688,0.906250,-0.230469,-7.840000,-12.320000,6.720000,0.738176,0.000000,-0.411136,,0,0,0,0,0,,,,,,,,,-72,17:03:32.467,
,,13231,7880,477,678,331,-0.054688,0.906250,-0.230469,-7.840000,-12.320000,6.720000,0.738176,0.000000,-0.411136,,0,0,0,0,0,,,,,,,,,-72,17:03:32.468,
,,13232,7900,477,676,329,0.000000,0.863281,-0.117188,-25.760000,-11.200000,1.120000,0.738176,0.000000,-0.411136,,0,0,0,0,0,,,,,,,,,-72,17:03:32.496,
,,13233,7920,480,676,325,0.000000,0.863281,-0.117188,-25.760000,-11.200000,1.120000,0.738176,0.000000,-0.411136,,0,0,0,0,0,,,,,,,,,-72,17:03:32.526,
,,13234,7940,481,673,323,0.000000,0.863281,-0.117188,-25.760000,-11.200000,1.120000,0.738176,0.000000,-0.411136,,0,0,0,0,0,,,,,,,,,-72,17:03:32.528,
,,13235,7960,481,674,321,-0.183594,0.906250,-0.117188,-32.480000,-6.720000,-3.360000,0.738176,0.000000,-0.411136,,0,0,0,0,0,,,,,,,,,-72,17:03:32.556,
,,13236,7980,481,671,319,-0.183594,0.906250,-0.117188,-32.480000,-6.720000,-3.360000,0.738176,0.000000,-0.411136,,0,0,0,0,0,,,,,,,,,-72,17:03:32.587,
,,13237,8000,483,668,317,-0.183594,0.906250,-0.117188,-32.480000,-6.720000,-3.360000,0.794240,-0.018688,-0.317696,,0,0,0,0,0,,,,,,,,,-72,17:03:32.588,
,,13238,8020,484,667,317,-0.183594,0.906250,-0.117188,-32.480000,-6.720000,-3.360000,0.794240,-0.018688,-0.317696,,0,0,0,0,0,,,,,,,,,-72,17:03:32.616,
,,13239,8040,487,665,316,-0.093750,0.730469,-0.070312,-30.240000,-5.600000,-7.840000,0.794240,-0.018688,-0.317696,,0,0,0,0,0,,,,,,,,,-72,17:03:32.647,
,,13240,8060,488,663,316,-0.093750,0.730469,-0.070312,-30.240000,-5.600000,-7.840000,0.794240,-0.018688,-0.317696,,0,0,0,0,0,,,,,,,,,-72,17:03:32.648,
,,13241,8080,488,662,314,-0.093750,0.730469,-0.070312,-30.240000,-5.600000,-7.840000,0.794240,-0.018688,-0.317696,,0,0,0,0,0,,,,,,,,,-72,17:03:32.676,
,,13242,8100,490,660,316,-0.093750,0.730469,-0.070312,-30.240000,-5.600000,-7.840000,0.794240,-0.018688,-0.317696,,0,0,0,0,0,,,,,,,,,-72,17:03:32.707,
,,13243,8120,492,658,314,-0.128906,0.722656,-0.175781,-30.240000,-6.720000,-11.200000,0.794240,-0.018688,-0.317696,,0,0,0,0,0,,,,,,,,,-72,17:03:32.708,
,,13244,8140,494,656,313,-0.128906,0.722656,-0.175781,-30.240000,-6.720000,-11.200000,0.794240,-0.018688,-0.317696,,0,0,0,0,0,,,,,,,,,-72,17:03:32.742,
,,13245,8160,495,653,311,-0.128906,0.722656,-0.175781,-30.240000,-6.720000,-11.200000,0.794240,-0.018688,-0.317696,,0,0,0,0,0,,,,,,,,,-72,17:03:32.767,
,,13246,8180,499,653,311,-0.128906,0.722656,-0.175781,-30.240000,-6.720000,-11.200000,0.794240,-0.018688,-0.317696,,0,0,0,0,0,,,,,,,,,-72,17:03:32.768,
,,13247,8200,502,652,311,-0.222656,0.851562,-0.136719,-36.959999,-22.400000,-22.400000,0.794240,-0.018688,-0.317696,,0,0,0,0,0,,,,,,,,,-72,17:03:32.796,
,,13248,8220,503,650,309,-0.222656,0.851562,-0.136719,-36.959999,-22.400000,-22.400000,0.794240,-0.018688,-0.317696,,0,0,0,0,0,,,,,,,,,-72,17:03:32.827,
,,13249,8240,505,650,309,-0.222656,0.851562,-0.136719,-36.959999,-22.400000,-22.400000,0.794240,-0.018688,-0.317696,,0,0,0,0,0,,,,,,,,,-72,17:03:32.828,
,,13250,8260,505,655,306,-0.386719,0.839844,-0.093750,-49.279999,-42.560001,-38.080002,0.794240,-0.018688,-0.317696,,0,0,0,0,0,,,,,,,,,-72,17:03:32.856,
,,13251,8280,502,659,305,-0.386719,0.839844,-0.093750,-49.279999,-42.560001,-38.080002,0.794240,-0.018688,-0.317696,,0,0,0,0,0,,,,,,,,,-72,17:03:32.886,
,,13252,8300,497,663,306,-0.386719,0.839844,-0.093750,-49.279999,-42.560001,-38.080002,0.794240,-0.018688,-0.317696,,0,0,0,0,0,,,,,,,,,-72,17:03:32.887,
,,13253,8320,488,665,307,-0.386719,0.839844,-0.093750,-49.279999,-42.560001,-38.080002,0.794240,-0.018688,-0.317696,,0,0,0,0,0,,,,,,,,,-72,17:03:32.915,
,,13254,8340,477,667,314,-0.414062,0.925781,0.222656,-70.559998,-36.959999,-49.279999,0.794240,-0.018688,-0.317696,,0,0,0,0,0,,,,,,,,,-72,17:03:32.947,
,,13255,8360,460,667,331,-0.414062,0.925781,0.222656,-70.559998,-36.959999,-49.279999,0.794240,-0.018688,-0.317696,,0,0,0,0,0,,,,,,,,,-72,17:03:32.948,
,,13256,8380,452,664,367,-0.414062,0.925781,0.222656,-70.559998,-36.959999,-49.279999,0.794240,-0.018688,-0.317696,,0,0,0,0,0,,,,,,,,,-72,17:03:32.977,
,,13257,8400,449,659,440,-0.414062,0.925781,0.222656,-70.559998,-36.959999,-49.279999,0.794240,-0.018688,-0.317696,,0,0,0,0,0,,,,,,,,,-72,17:03:33.007,
,,13258,8420,458,656,511,0.218750,1.105469,0.054688,-87.360001,2.240000,-12.320000,0.794240,-0.018688,-0.317696,,0,0,0,0,0,,,,,,,,,-72,17:03:33.009,
,,13259,8440,468,656,550,0.218750,1.105469,0.054688,-87.360001,2.240000,-12.320000,0.794240,-0.018688,-0.317696,,0,0,0,0,0,,,,,,,,,-72,17:03:33.036,
,,13260,8460,478,662,570,0.218750,1.105469,0.054688,-87.360001,2.240000,-12.320000,0.794240,-0.018688,-0.317696,,0,0,0,0,0,,,,,,,,,-72,17:03:33.067,
,,13261,8480,484,668,579,0.218750,1.105469,0.054688,-87.360001,2.240000,-12.320000,0.794240,-0.018688,-0.317696,,0,0,0,0,0,,,,,,,,,-72,17:03:33.068,
,,13262,8500,490,672,585,-0.804688,1.500000,-0.878906,-126.559998,-15.680000,-72.800003,0.794240,-0.018688,-0.317696,,0,0,0,0,0,,,,,,,,,-72,17:03:33.097,
,,13263,8520,493,672,588,-0.804688,1.500000,-0.878906,-126.559998,-15.680000,-72.800003,0.794240,-0.018688,-0.317696,,0,0,0,0,0,,,,,,,,,-72,17:03:33.130,
,,13264,8540,492,668,584,-0.804688,1.500000,-0.878906,-126.559998,-15.680000,-72.800003,0.794240,-0.018688,-0.317696,,0,0,0,0,0,,,,,,,,,-72,17:03:33.132,
,,13265,8560,498,672,591,-0.804688,1.500000,-0.878906,-126.559998,-15.680000,-72.800003,0.794240,-0.018688,-0.317696,,0,0,0,0,0,,,,,,,,,-72,17:03:33.157,
,,13266,8580,491,668,587,0.089844,1.246094,-0.585938,-19.040001,-85.120003,-163.520004,0.794240,-0.018688,-0.317696,,0,0,0,0,0,,,,,,,,,-72,17:03:33.187,
,,13267,8600,498,670,595,0.089844,1.246094,-0.585938,-19.040001,-85.120003,-163.520004,0.794240,-0.018688,-0.317696,,0,0,0,0,0,,,,,,,,,-72,17:03:33.188,
,,13268,8620,504,677,605,0.089844,1.246094,-0.585938,-19.040001,-85.120003,-163.520004,0.794240,-0.018688,-0.317696,,0,0,0,0,0,,,,,,,,,-72,17:03:33.216,
,,13269,8640,509,684,611,0.089844,1.246094,-0.585938,-19.040001,-85.120003,-163.520004,0.794240,-0.018688,-0.317696,,0,0,0,0,0,,,,,,,,,-72,17:03:33.247,
,,13270,8660,513,688,613,-0.187500,1.109375,-0.250000,26.880001,99.680000,-146.720001,0.794240,-0.018688,-0.317696,,0,0,0,0,0,,,,,,,,,-72,17:03:33.248,
,,13271,8680,515,689,615,-0.187500,1.109375,-0.250000,26.880001,99.680000,-146.720001,0.794240,-0.018688,-0.317696,,0,0,0,0,0,,,,,,,,,-72,17:03:33.276,
,,13272,8700,515,690,614,-0.187500,1.109375,-0.250000,26.880001,99.680000,-146.720001,0.794240,-0.018688,-0.317696,,0,0,0,0,0,,,,,,,,,-72,17:03:33.307,
,,13273,8720,516,691,613,-0.027344,0.679688,0.117188,54.880001,173.600006,-51.520000,0.794240,-0.018688,-0.317696,,0,0,0,0,0,,,,,,,,,-72,17:03:33.308,
,,13274,8740,516,694,612,-0.027344,0.679688,0.117188,54.880001,173.600006,-51.520000,0.794240,-0.018688,-0.317696,,0,0,0,0,0,,,,,,,,,-72,17:03:33.336,
,,13275,8760,517,695,610,-0.027344,0.679688,0.117188,54.880001,173.600006,-51.520000,0.794240,-0.018688,-0.317696,,0,0,0,0,0,,,,,,,,,-75,17:03:33.367,
,,13276,8780,517,695,609,-0.027344,0.679688,0.117188,54.880001,173.600006,-51.520000,0.794240,-0.018688,-0.317696,,0,0,0,0,0,,,,,,,,,-75,17:03:33.368,
,,13277,8800,518,696,605,0.000000,0.519531,0.238281,72.800003,123.199997,91.840004,0.794240,-0.018688,-0.317696,,0,0,0,0,0,,,,,,,,,-75,17:03:33.397,
,,13278,8820,518,699,604,0.000000,0.519531,0.238281,72.800003,123.199997,91.840004,0.794240,-0.018688,-0.317696,,0,0,0,0,0,,,,,,,,,-75,17:03:33.427,
,,13279,8840,516,700,599,0.000000,0.519531,0.238281,72.800003,123.199997,91.840004,0.794240,-0.018688,-0.317696,,0,0,0,0,0,,,,,,,,,-75,17:03:33.428,
,,13280,8860,516,704,596,0.000000,0.519531,0.238281,72.800003,123.199997,91.840004,0.794240,-0.018688,-0.317696,,0,0,0,0,0,,,,,,,,,-75,17:03:33.457,
,,13281,8880,514,706,591,0.035156,1.027344,0.527344,77.279999,71.680000,212.800003,0.794240,-0.018688,-0.317696,,0,0,0,0,0,,,,,,,,,-75,17:03:33.487,
,,13282,8900,514,708,588,0.035156,1.027344,0.527344,77.279999,71.680000,212.800003,0.794240,-0.018688,-0.317696,,0,0,0,0,0,,,,,,,,,-75,17:03:33.488,
,,13283,8920,514,711,586,0.035156,1.027344,0.527344,77.279999,71.680000,212.800003,0.794240,-0.018688,-0.317696,,0,0,0,0,0,,,,,,,,,-75,17:03:33.517,
,,13284,8940,514,714,583,0.035156,1.027344,0.527344,77.279999,71.680000,212.800003,0.794240,-0.018688,-0.317696,,0,0,0,0,0,,,,,,,,,-75,17:03:33.547,
,,13285,8960,515,714,582,-0.558594,1.785156,0.445312,36.959999,68.320000,220.639999,0.794240,-0.018688,-0.317696,,0,0,0,0,0,,,,,,,,,-75,17:03:33.548,
,,13286,8980,516,715,580,-0.558594,1.785156,0.445312,36.959999,68.320000,220.639999,0.794240,-0.018688,-0.317696,,0,0,0,0,0,,,,,,,,,-75,17:03:33.576,
,,13287,9000,515,713,571,-0.558594,1.785156,0.445312,36.959999,68.320000,220.639999,0.794240,-0.018688,-0.317696,,0,0,0,0,0,,,,,,,,,-75,17:03:33.607,
,,13288,9020,518,713,562,-0.558594,1.785156,0.445312,36.959999,68.320000,220.639999,0.794240,-0.018688,-0.317696,,0,0,0,0,0,,,,,,,,,-75,17:03:33.608,
,,13289,9040,515,713,552,-0.769531,1.132812,0.375000,-30.240000,-29.120001,105.279999,0.794240,-0.018688,-0.317696,,0,0,0,0,0,,,,,,,,,-75,17:03:33.636,
,,13290,9060,517,714,526,-0.769531,1.132812,0.375000,-30.240000,-29.120001,105.279999,0.794240,-0.018688,-0.317696,,0,0,0,0,0,,,,,,,,,-75,17:03:33.667,
,,13291,9080,516,713,467,-0.769531,1.132812,0.375000,-30.240000,-29.120001,105.279999,0.794240,-0.018688,-0.317696,,0,0,0,0,0,,,,,,,,,-75,17:03:33.668,
,,13292,9100,471,666,361,-0.488281,0.812500,-0.082031,-19.040001,-50.400002,-24.639999,0.794240,-0.018688,-0.317696,,0,0,0,0,0,,,,,,,,,-75,17:03:33.696,
,,13293,9120,410,592,280,-0.488281,0.812500,-0.082031,-19.040001,-50.400002,-24.639999,0.794240,-0.018688,-0.317696,,0,0,0,0,0,,,,,,,,,-75,17:03:33.727,
,,13294,9140,454,638,291,-0.488281,0.812500,-0.082031,-19.040001,-50.400002,-24.639999,0.794240,-0.018688,-0.317696,,0,0,0,0,0,,,,,,,,,-75,17:03:33.728,
,,13295,9160,473,667,287,-0.488281,0.812500,-0.082031,-19.040001,-50.400002,-24.639999,0.794240,-0.018688,-0.317696,,0,0,0,0,0,,,,,,,,,-75,17:03:33.757,
,,13296,9180,482,682,282,0.042969,0.792969,0.066406,5.600000,-66.080002,-45.920002,0.794240,-0.018688,-0.317696,,0,0,0,0,0,,,,,,,,,-75,17:03:33.787,
,,13297,9200,485,691,277,0.042969,0.792969,0.066406,5.600000,-66.080002,-45.920002,0.794240,-0.018688,-0.317696,,0,0,0,0,0,,,,,,,,,-75,17:03:33.788,
,,13298,9220,485,695,275,0.042969,0.792969,0.066406,5.600000,-66.080002,-45.920002,0.794240,-0.018688,-0.317696,,0,0,0,0,0,,,,,,,,,-75,17:03:33.816,
,,13299,9240,486,699,274,0.042969,0.792969,0.066406,5.600000,-66.080002,-45.920002,0.794240,-0.018688,-0.317696,,0,0,0,0,0,,,,,,,,,-75,17:03:33.847,
,,13300,9260,487,701,272,-0.296875,0.902344,-0.074219,-4.480000,-33.599998,0.000000,0.794240,-0.018688,-0.317696,,0,0,0,0,0,,,,,,,,,-75,17:03:33.849,
,,13301,9280,490,701,273,-0.296875,0.902344,-0.074219,-4.480000,-33.599998,0.000000,0.794240,-0.018688,-0.317696,,0,0,0,0,0,,,,,,,,,-75,17:03:33.876,
,,13302,9300,491,702,275,-0.296875,0.902344,-0.074219,-4.480000,-33.599998,0.000000,0.794240,-0.018688,-0.317696,,0,0,0,0,0,,,,,,,,,-75,17:03:33.907,
,,13303,9320,490,701,275,-0.296875,0.902344,-0.074219,-4.480000,-33.599998,0.000000,0.794240,-0.018688,-0.317696,,0,0,0,0,0,,,,,,,,,-75,17:03:33.908,
,,13304,9340,490,700,276,-0.554688,0.875000,-0.281250,-19.040001,-20.160000,4.480000,0.794240,-0.018688,-0.317696,,0,0,0,0,0,,,,,,,,,-75,17:03:33.936,
,,13305,9360,491,702,274,-0.554688,0.875000,-0.281250,-19.040001,-20.160000,4.480000,0.794240,-0.018688,-0.317696,,0,0,0,0,0,,,,,,,,,-75,17:03:33.967,
,,13306,9380,490,701,277,-0.554688,0.875000,-0.281250,-19.040001,-20.160000,4.480000,0.794240,-0.018688,-0.317696,,0,0,0,0,0,,,,,,,,,-75,17:03:33.968,
,,13307,9400,490,700,274,-0.554688,0.875000,-0.281250,-19.040001,-20.160000,4.480000,0.794240,-0.018688,-0.317696,,0,0,0,0,0,,,,,,,,,-75,17:03:33.996,
,,13308,9420,490,698,276,-0.148438,0.886719,-0.152344,-26.880001,-20.160000,-7.840000,0.794240,-0.018688,-0.317696,,0,0,0,0,0,,,,,,,,,-75,17:03:34.027,
,,13309,9440,491,698,275,-0.148438,0.886719,-0.152344,-26.880001,-20.160000,-7.840000,0.794240,-0.018688,-0.317696,,0,0,0,0,0,,,,,,,,,-75,17:03:34.028,
,,13310,9460,491,696,276,-0.148438,0.886719,-0.152344,-26.880001,-20.160000,-7.840000,0.794240,-0.018688,-0.317696,,0,0,0,0,0,,,,,,,,,-75,17:03:34.056,
,,13311,9480,492,695,275,-0.148438,0.886719,-0.152344,-26.880001,-20.160000,-7.840000,0.794240,-0.018688,-0.317696,,0,0,0,0,0,,,,,,,,,-75,17:03:34.086,
,,13312,9500,492,694,276,-0.074219,0.917969,0.000000,-32.480000,-22.400000,-14.560000,0.794240,-0.018688,-0.317696,,0,0,0,0,0,,,,,,,,,-75,17:03:34.088,
,,13313,9520,490,692,280,-0.074219,0.917969,0.000000,-32.480000,-22.400000,-14.560000,0.794240,-0.018688,-0.317696,,0,0,0,0,0,,,,,,,,,-75,17:03:34.117,
,,13314,9540,491,691,285,-0.074219,0.917969,0.000000,-32.480000,-22.400000,-14.560000,0.794240,-0.018688,-0.317696,,0,0,0,0,0,,,,,,,,,-75,17:03:34.147,
,,13315,9560,491,687,294,-0.023438,0.824219,0.058594,-28.000000,-21.280001,-15.680000,0.794240,-0.018688,-0.317696,,0,0,0,0,0,,,,,,,,,-75,17:03:34.148,
,,13316,9580,493,685,299,-0.023438,0.824219,0.058594,-28.000000,-21.280001,-15.680000,0.794240,-0.018688,-0.317696,,0,0,0,0,0,,,,,,,,,-75,17:03:34.177,
,,13317,9600,491,685,304,-0.023438,0.824219,0.058594,-28.000000,-21.280001,-15.680000,0.784896,-0.009344,-0.345728,,0,0,0,0,0,,,,,,,,,-75,17:03:34.207,
,,13318,9620,492,682,311,-0.023438,0.824219,0.058594,-28.000000,-21.280001,-15.680000,0.784896,-0.009344,-0.345728,,0,0,0,0,0,,,,,,,,,-75,17:03:34.208,
,,13319,9640,492,680,322,-0.171875,0.800781,-0.066406,-35.840000,-20.160000,-21.280001,0.784896,-0.009344,-0.345728,,0,0,0,0,0,,,,,,,,,-75,17:03:34.236,
,,13320,9660,491,677,330,-0.171875,0.800781,-0.066406,-35.840000,-20.160000,-21.280001,0.784896,-0.009344,-0.345728,,0,0,0,0,0,,,,,,,,,-75,17:03:34.267,
,,13321,9680,491,674,335,-0.171875,0.800781,-0.066406,-35.840000,-20.160000,-21.280001,0.784896,-0.009344,-0.345728,,0,0,0,0,0,,,,,,,,,-75,17:03:34.268,
,,13322,9700,490,673,339,-0.171875,0.800781,-0.066406,-35.840000,-20.160000,-21.280001,0.784896,-0.009344,-0.345728,,0,0,0,0,0,,,,,,,,,-75,17:03:34.296,
,,13323,9720,472,653,325,-0.253906,0.906250,0.046875,-52.639999,-28.000000,-31.360001,0.784896,-0.009344,-0.345728,,0,0,0,0,0,,,,,,,,,-75,17:03:34.327,
,,13324,9740,466,645,323,-0.253906,0.906250,0.046875,-52.639999,-28.000000,-31.360001,0.784896,-0.009344,-0.345728,,0,0,0,0,0,,,,,,,,,-75,17:03:34.328,
,,13325,9760,472,652,327,-0.253906,0.906250,0.046875,-52.639999,-28.000000,-31.360001,0.784896,-0.009344,-0.345728,,0,0,0,0,0,,,,,,,,,-75,17:03:34.356,
,,13326,9780,470,655,325,-0.253906,0.906250,0.046875,-52.639999,-28.000000,-31.360001,0.784896,-0.009344,-0.345728,,0,0,0,0,0,,,,,,,,,-75,17:03:34.386,
,,13327,9800,467,657,323,-0.445312,0.550781,0.042969,-66.080002,-23.520000,-41.439999,0.784896,-0.009344,-0.345728,,0,0,0,0,0,,,,,,,,,-75,17:03:34.387,
,,13328,9820,459,656,325,-0.445312,0.550781,0.042969,-66.080002,-23.520000,-41.439999,0.784896,-0.009344,-0.345728,,0,0,0,0,0,,,,,,,,,-75,17:03:34.416,
,,13329,9840,448,657,330,-0.445312,0.550781,0.042969,-66.080002,-23.520000,-41.439999,0.784896,-0.009344,-0.345728,,0,0,0,0,0,,,,,,,,,-75,17:03:34.447,
,,13330,9860,441,654,357,-0.445312,0.550781,0.042969,-66.080002,-23.520000,-41.439999,0.784896,-0.009344,-0.345728,,0,0,0,0,0,,,,,,,,,-75,17:03:34.448,
,,13331,9880,440,652,424,-0.328125,0.843750,0.125000,-86.239998,-14.560000,-32.480000,0.784896,-0.009344,-0.345728,,0,0,0,0,0,,,,,,,,,-75,17:03:34.476,
,,13332,9900,453,650,507,-0.328125,0.843750,0.125000,-86.239998,-14.560000,-32.480000,0.784896,-0.009344,-0.345728,,0,0,0,0,0,,,,,,,,,-75,17:03:34.507,
,,13333,9920,469,656,561,-0.328125,0.843750,0.125000,-86.239998,-14.560000,-32.480000,0.784896,-0.009344,-0.345728,,0,0,0,0,0,,,,,,,,,-75,17:03:34.508,
,,13334,9940,481,662,583,-0.144531,1.437500,-0.406250,-142.240005,3.360000,-24.639999,0.784896,-0.009344,-0.345728,,0,0,0,0,0,,,,,,,,,-75,17:03:34.566,
,,13335,9960,492,670,593,-0.144531,1.437500,-0.406250,-142.240005,3.360000,-24.639999,0.784896,-0.009344,-0.345728,,0,0,0,0,0,,,,,,,,,-75,17:03:34.567,
,,13336,9980,495,674,600,-0.144531,1.437500,-0.406250,-142.240005,3.360000,-24.639999,0.784896,-0.009344,-0.345728,,0,0,0,0,0,,,,,,,,,-75,17:03:34.569,
,,13337,10000,499,677,603,-0.144531,1.437500,-0.406250,-142.240005,3.360000,-24.639999,0.784896,-0.009344,-0.345728,,0,0,0,0,0,,,,,,,,,-75,17:03:34.596,
,,13338,10020,498,679,608,-0.585938,1.535156,-0.851562,-53.760002,-53.760002,-175.839996,0.784896,-0.009344,-0.345728,,0,0,0,0,0,,,,,,,,,-75,17:03:34.626,
,,13339,10040,500,683,611,-0.585938,1.535156,-0.851562,-53.760002,-53.760002,-175.839996,0.784896,-0.009344,-0.345728,,0,0,0,0,0,,,,,,,,,-75,17:03:34.628,
,,13340,10060,501,685,614,-0.585938,1.535156,-0.851562,-53.760002,-53.760002,-175.839996,0.784896,-0.009344,-0.345728,,0,0,0,0,0,,,,,,,,,-75,17:03:34.657,
,,13341,10080,502,685,619,-0.585938,1.535156,-0.851562,-53.760002,-53.760002,-175.839996,0.784896,-0.009344,-0.345728,,0,0,0,0,0,,,,,,,,,-75,17:03:34.687,
,,13342,10100,507,688,624,-0.183594,1.082031,-0.195312,24.639999,39.200001,-211.680008,0.784896,-0.009344,-0.345728,,0,0,0,0,0,,,,,,,,,-75,17:03:34.688,
,,13343,10120,509,689,627,-0.183594,1.082031,-0.195312,24.639999,39.200001,-211.680008,0.784896,-0.009344,-0.345728,,0,0,0,0,0,,,,,,,,,-75,17:03:34.717,
,,13344,10140,512,690,629,-0.183594,1.082031,-0.195312,24.639999,39.200001,-211.680008,0.784896,-0.009344,-0.345728,,0,0,0,0,0,,,,,,,,,-75,17:03:34.746,
,,13345,10160,513,689,630,-0.183594,1.082031,-0.195312,24.639999,39.200001,-211.680008,0.784896,-0.009344,-0.345728,,0,0,0,0,0,,,,,,,,,-75,17:03:34.748,
,,13346,10180,513,691,629,-0.070312,0.605469,0.078125,43.680000,156.800003,-123.199997,0.784896,-0.009344,-0.345728,,0,0,0,0,0,,,,,,,,,-75,17:03:34.776,
,,13347,10200,512,691,627,-0.070312,0.605469,0.078125,43.680000,156.800003,-123.199997,0.784896,-0.009344,-0.345728,,0,0,0,0,0,,,,,,,,,-75,17:03:34.807,
,,13348,10220,514,693,626,-0.070312,0.605469,0.078125,43.680000,156.800003,-123.199997,0.784896,-0.009344,-0.345728,,0,0,0,0,0,,,,,,,,,-75,17:03:34.808,
,,13349,10240,514,691,622,-0.070312,0.605469,0.078125,43.680000,156.800003,-123.199997,0.784896,-0.009344,-0.345728,,0,0,0,0,0,,,,,,,,,-75,17:03:34.836,
,,13350,10260,515,693,620,-0.156250,0.550781,0.164062,35.840000,170.240005,-2.240000,0.784896,-0.009344,-0.345728,,0,0,0,0,0,,,,,,,,,-75,17:03:34.866,
,,13351,10280,515,696,618,-0.156250,0.550781,0.164062,35.840000,170.240005,-2.240000,0.784896,-0.009344,-0.345728,,0,0,0,0,0,,,,,,,,,-75,17:03:34.868,
,,13352,10300,514,698,616,-0.156250,0.550781,0.164062,35.840000,170.240005,-2.240000,0.784896,-0.009344,-0.345728,,0,0,0,0,0,,,,,,,,,-75,17:03:34.896,
,,13353,10320,515,700,613,0.011719,0.628906,0.253906,8.960000,75.040001,160.160004,0.784896,-0.009344,-0.345728,,0,0,0,0,0,,,,,,,,,-75,17:03:34.927,
,,13354,10340,516,703,610,0.011719,0.628906,0.253906,8.960000,75.040001,160.160004,0.784896,-0.009344,-0.345728,,0,0,0,0,0,,,,,,,,,-75,17:03:34.928,
,,13355,10360,514,705,608,0.011719,0.628906,0.253906,8.960000,75.040001,160.160004,0.784896,-0.009344,-0.345728,,0,0,0,0,0,,,,,,,,,-75,17:03:34.956,
,,13356,10380,516,707,604,0.011719,0.628906,0.253906,8.960000,75.040001,160.160004,0.784896,-0.009344,-0.345728,,0,0,0,0,0,,,,,,,,,-75,17:03:34.987,
,,13357,10400,516,712,601,-0.164062,1.167969,0.414062,31.360001,53.760002,254.240005,0.784896,-0.009344,-0.345728,,0,0,0,0,0,,,,,,,,,-75,17:03:34.988,
,,13358,10420,516,714,598,-0.164062,1.167969,0.414062,31.360001,53.760002,254.240005,0.784896,-0.009344,-0.345728,,0,0,0,0,0,,,,,,,,,-75,17:03:35.017,
,,13359,10440,515,714,597,-0.164062,1.167969,0.414062,31.360001,53.760002,254.240005,0.784896,-0.009344,-0.345728,,0,0,0,0,0,,,,,,,,,-75,17:03:35.047,
,,13360,10460,515,714,595,-0.164062,1.167969,0.414062,31.360001,53.760002,254.240005,0.784896,-0.009344,-0.345728,,0,0,0,0,0,,,,,,,,,-75,17:03:35.048,
,,13361,10480,515,714,587,-0.800781,1.597656,0.222656,10.080000,63.840000,230.720001,0.784896,-0.009344,-0.345728,,0,0,0,0,0,,,,,,,,,-75,17:03:35.076,
,,13362,10500,516,712,576,-0.800781,1.597656,0.222656,10.080000,63.840000,230.720001,0.784896,-0.009344,-0.345728,,0,0,0,0,0,,,,,,,,,-75,17:03:35.107,
,,13363,10520,516,710,567,-0.800781,1.597656,0.222656,10.080000,63.840000,230.720001,0.784896,-0.009344,-0.345728,,0,0,0,0,0,,,,,,,,,-75,17:03:35.108,
,,13364,10540,516,709,544,-0.800781,1.597656,0.222656,10.080000,63.840000,230.720001,0.784896,-0.009344,-0.345728,,0,0,0,0,0,,,,,,,,,-75,17:03:35.136,
,,13365,10560,515,706,502,-1.171875,0.625000,-0.144531,-19.040001,-12.320000,45.920002,0.784896,-0.009344,-0.345728,,0,0,0,0,0,,,,,,,,,-75,17:03:35.167,
,,13366,10580,510,703,451,-1.171875,0.625000,-0.144531,-19.040001,-12.320000,45.920002,0.784896,-0.009344,-0.345728,,0,0,0,0,0,,,,,,,,,-75,17:03:35.168,
,,13367,10600,504,701,403,-1.171875,0.625000,-0.144531,-19.040001,-12.320000,45.920002,0.784896,-0.009344,-0.345728,,0,0,0,0,0,,,,,,,,,-75,17:03:35.196,
,,13368,10620,497,698,367,-1.171875,0.625000,-0.144531,-19.040001,-12.320000,45.920002,0.784896,-0.009344,-0.345728,,0,0,0,0,0,,,,,,,,,-75,17:03:35.226,
,,13369,10640,492,695,341,-0.117188,0.917969,0.058594,13.440001,-57.119999,-20.160000,0.784896,-0.009344,-0.345728,,0,0,0,0,0,,,,,,,,,-75,17:03:35.228,
,,13370,10660,490,692,325,-0.117188,0.917969,0.058594,13.440001,-57.119999,-20.160000,0.784896,-0.009344,-0.345728,,0,0,0,0,0,,,,,,,,,-75,17:03:35.256,
,,13371,10680,487,688,314,-0.117188,0.917969,0.058594,13.440001,-57.119999,-20.160000,0.784896,-0.009344,-0.345728,,0,0,0,0,0,,,,,,,,,-75,17:03:35.286,
,,13372,10700,486,686,311,-0.117188,0.917969,0.058594,13.440001,-57.119999,-20.160000,0.784896,-0.009344,-0.345728,,0,0,0,0,0,,,,,,,,,-75,17:03:35.288,
,,13373,10720,486,683,307,0.085938,0.976562,-0.207031,12.320000,-34.720001,-5.600000,0.784896,-0.009344,-0.345728,,0,0,0,0,0,,,,,,,,,-75,17:03:35.316,
,,13374,10740,487,684,307,0.085938,0.976562,-0.207031,12.320000,-34.720001,-5.600000,0.784896,-0.009344,-0.345728,,0,0,0,0,0,,,,,,,,,-75,17:03:35.347,
,,13375,10760,489,685,305,0.085938,0.976562,-0.207031,12.320000,-34.720001,-5.600000,0.784896,-0.009344,-0.345728,,0,0,0,0,0,,,,,,,,,-75,17:03:35.348,
,,13376,10780,492,686,303,-0.390625,0.820312,-0.101562,-21.280001,-34.720001,4.480000,0.784896,-0.009344,-0.345728,,0,0,0,0,0,,,,,,,,,-75,17:03:35.376,
,,13377,10800,494,686,302,-0.390625,0.820312,-0.101562,-21.280001,-34.720001,4.480000,0.784896,-0.009344,-0.345728,,0,0,0,0,0,,,,,,,,,-75,17:03:35.407,
,,13378,10820,495,685,300,-0.390625,0.820312,-0.101562,-21.280001,-34.720001,4.480000,0.784896,-0.009344,-0.345728,,0,0,0,0,0,,,,,,,,,-75,17:03:35.408,
,,13379,10840,496,685,298,-0.390625,0.820312,-0.101562,-21.280001,-34.720001,4.480000,0.784896,-0.009344,-0.345728,,0,0,0,0,0,,,,,,,,,-75,17:03:35.436,
,,13380,10860,496,683,297,-0.460938,0.886719,-0.066406,-34.720001,-23.520000,-1.120000,0.784896,-0.009344,-0.345728,,0,0,0,0,0,,,,,,,,,-75,17:03:35.467,
,,13381,10880,496,682,298,-0.460938,0.886719,-0.066406,-34.720001,-23.520000,-1.120000,0.784896,-0.009344,-0.345728,,0,0,0,0,0,,,,,,,,,-75,17:03:35.468,
,,13382,10900,498,680,298,-0.460938,0.886719,-0.066406,-34.720001,-23.520000,-1.120000,0.784896,-0.009344,-0.345728,,0,0,0,0,0,,,,,,,,,-75,17:03:35.496,
,,13383,10920,498,678,297,-0.460938,0.886719,-0.066406,-34.720001,-23.520000,-1.120000,0.784896,-0.009344,-0.345728,,0,0,0,0,0,,,,,,,,,-75,17:03:35.527,
,,13384,10940,499,678,298,-0.035156,0.925781,0.003906,-31.360001,-19.040001,-8.960000,0.784896,-0.009344,-0.345728,,0,0,0,0,0,,,,,,,,,-75,17:03:35.528,
,,13385,10960,499,678,296,-0.035156,0.925781,0.003906,-31.360001,-19.040001,-8.960000,0.784896,-0.009344,-0.345728,,0,0,0,0,0,,,,,,,,,-75,17:03:35.557,
,,13386,10980,500,675,296,-0.035156,0.925781,0.003906,-31.360001,-19.040001,-8.960000,0.784896,-0.009344,-0.345728,,0,0,0,0,0,,,,,,,,,-75,17:03:35.587,
,,13387,11000,500,675,295,-0.035156,0.925781,0.003906,-31.360001,-19.040001,-8.960000,0.784896,-0.009344,-0.345728,,0,0,0,0,0,,,,,,,,,-75,17:03:35.588,
,,13388,11020,502,673,294,-0.281250,0.515625,-0.058594,-35.840000,-8.960000,-8.960000,0.784896,-0.009344,-0.345728,,0,0,0,0,0,,,,,,,,,-75,17:03:35.616,
,,13389,11040,502,672,292,-0.281250,0.515625,-0.058594,-35.840000,-8.960000,-8.960000,0.784896,-0.009344,-0.345728,,0,0,0,0,0,,,,,,,,,-75,17:03:35.647,
,,13390,11060,503,668,292,-0.281250,0.515625,-0.058594,-35.840000,-8.960000,-8.960000,0.784896,-0.009344,-0.345728,,0,0,0,0,0,,,,,,,,,-75,17:03:35.648,
,,13391,11080,506,665,293,-0.289062,0.777344,-0.085938,-40.320000,-7.840000,-15.680000,0.784896,-0.009344,-0.345728,,0,0,0,0,0,,,,,,,,,-75,17:03:35.677,
,,13392,11100,510,663,293,-0.289062,0.777344,-0.085938,-40.320000,-7.840000,-15.680000,0.784896,-0.009344,-0.345728,,0,0,0,0,0,,,,,,,,,-75,17:03:35.707,
,,13393,11120,511,662,294,-0.289062,0.777344,-0.085938,-40.320000,-7.840000,-15.680000,0.784896,-0.009344,-0.345728,,0,0,0,0,0,,,,,,,,,-75,17:03:35.708,
,,13394,11140,514,659,294,-0.289062,0.777344,-0.085938,-40.320000,-7.840000,-15.680000,0.784896,-0.009344,-0.345728,,0,0,0,0,0,,,,,,,,,-75,17:03:35.736,
,,13395,11160,515,656,295,-0.417969,0.714844,-0.128906,-48.160000,-20.160000,-24.639999,0.784896,-0.009344,-0.345728,,0,0,0,0,0,,,,,,,,,-75,17:03:35.767,
,,13396,11180,514,656,299,-0.417969,0.714844,-0.128906,-48.160000,-20.160000,-24.639999,0.784896,-0.009344,-0.345728,,0,0,0,0,0,,,,,,,,,-75,17:03:35.768,
,,13397,11200,513,655,302,-0.417969,0.714844,-0.128906,-48.160000,-20.160000,-24.639999,0.719488,-0.074752,-0.420480,,0,0,0,0,0,,,,,,,,,-75,17:03:35.796,
,,13398,11220,513,659,305,-0.417969,0.714844,-0.128906,-48.160000,-20.160000,-24.639999,0.719488,-0.074752,-0.420480,,0,0,0,0,0,,,,,,,,,-75,17:03:35.827,
,,13399,11240,511,664,310,-0.242188,0.808594,0.070312,-60.480000,-39.200001,-44.799999,0.719488,-0.074752,-0.420480,,0,0,0,0,0,,,,,,,,,-75,17:03:35.828,
,,13400,11260,502,666,314,-0.242188,0.808594,0.070312,-60.480000,-39.200001,-44.799999,0.719488,-0.074752,-0.420480,,0,0,0,0,0,,,,,,,,,-75,17:03:35.856,
,,13401,11280,494,669,321,-0.242188,0.808594,0.070312,-60.480000,-39.200001,-44.799999,0.719488,-0.074752,-0.420480,,0,0,0,0,0,,,,,,,,,-75,17:03:35.887,
,,13402,11300,481,669,334,-0.242188,0.808594,0.070312,-60.480000,-39.200001,-44.799999,0.719488,-0.074752,-0.420480,,0,0,0,0,0,,,,,,,,,-75,17:03:35.889,
,,13403,11320,469,667,363,-0.128906,0.789062,-0.062500,-84.000000,-25.760000,-41.439999,0.719488,-0.074752,-0.420480,,0,0,0,0,0,,,,,,,,,-75,17:03:35.917,
,,13404,11340,462,664,430,-0.128906,0.789062,-0.062500,-84.000000,-25.760000,-41.439999,0.719488,-0.074752,-0.420480,,0,0,0,0,0,,,,,,,,,-75,17:03:35.947,
,,13405,11360,460,665,507,-0.128906,0.789062,-0.062500,-84.000000,-25.760000,-41.439999,0.719488,-0.074752,-0.420480,,0,0,0,0,0,,,,,,,,,-75,17:03:35.948,
,,13406,11380,469,668,554,-0.128906,0.789062,-0.062500,-84.000000,-25.760000,-41.439999,0.719488,-0.074752,-0.420480,,0,0,0,0,0,,,,,,,,,-75,17:03:35.976,
,,13407,11400,483,671,577,0.195312,1.230469,0.097656,-114.239998,-19.040001,-14.560000,0.719488,-0.074752,-0.420480,,0,0,0,0,0,,,,,,,,,-75,17:03:36.007,
,,13408,11420,496,677,592,0.195312,1.230469,0.097656,-114.239998,-19.040001,-14.560000,0.719488,-0.074752,-0.420480,,0,0,0,0,0,,,,,,,,,-75,17:03:36.009,
,,13409,11440,502,681,598,0.195312,1.230469,0.097656,-114.239998,-19.040001,-14.560000,0.719488,-0.074752,-0.420480,,0,0,0,0,0,,,,,,,,,-75,17:03:36.036,
,,13410,11460,508,681,606,0.195312,1.230469,0.097656,-114.239998,-19.040001,-14.560000,0.719488,-0.074752,-0.420480,,0,0,0,0,0,,,,,,,,,-75,17:03:36.067,
,,13411,11480,505,684,607,-0.566406,1.335938,-0.769531,-52.639999,-88.480003,-146.720001,0.719488,-0.074752,-0.420480,,0,0,0,0,0,,,,,,,,,-75,17:03:36.068,
,,13412,11500,507,687,614,-0.566406,1.335938,-0.769531,-52.639999,-88.480003,-146.720001,0.719488,-0.074752,-0.420480,,0,0,0,0,0,,,,,,,,,-75,17:03:36.096,
,,13413,11520,508,689,618,-0.566406,1.335938,-0.769531,-52.639999,-88.480003,-146.720001,0.719488,-0.074752,-0.420480,,0,0,0,0,0,,,,,,,,,-75,17:03:36.127,
,,13414,11540,507,690,623,-0.167969,1.152344,-0.269531,21.280001,39.200001,-144.479996,0.719488,-0.074752,-0.420480,,0,0,0,0,0,,,,,,,,,-75,17:03:36.128,
,,13415,11560,509,691,626,-0.167969,1.152344,-0.269531,21.280001,39.200001,-144.479996,0.719488,-0.074752,-0.420480,,0,0,0,0,0,,,,,,,,,-75,17:03:36.156,
,,13416,11580,511,691,630,-0.167969,1.152344,-0.269531,21.280001,39.200001,-144.479996,0.719488,-0.074752,-0.420480,,0,0,0,0,0,,,,,,,,,-75,17:03:36.187,
,,13417,11600,512,694,629,-0.167969,1.152344,-0.269531,21.280001,39.200001,-144.479996,0.719488,-0.074752,-0.420480,,0,0,0,0,0,,,,,,,,,-75,17:03:36.188,
,,13418,11620,512,694,631,-0.144531,0.878906,0.035156,50.400002,123.199997,-89.599998,0.719488,-0.074752,-0.420480,,0,0,0,0,0,,,,,,,,,-75,17:03:36.216,
,,13419,11640,513,694,629,-0.144531,0.878906,0.035156,50.400002,123.199997,-89.599998,0.719488,-0.074752,-0.420480,,0,0,0,0,0,,,,,,,,,-75,17:03:36.247,
,,13420,11660,513,693,628,-0.144531,0.878906,0.035156,50.400002,123.199997,-89.599998,0.719488,-0.074752,-0.420480,,0,0,0,0,0,,,,,,,,,-75,17:03:36.248,
,,13421,11680,513,695,628,-0.144531,0.878906,0.035156,50.400002,123.199997,-89.599998,0.719488,-0.074752,-0.420480,,0,0,0,0,0,,,,,,,,,-75,17:03:36.276,
,,13422,11700,515,695,625,-0.156250,0.671875,0.144531,52.639999,104.160004,0.000000,0.719488,-0.074752,-0.420480,,0,0,0,0,0,,,,,,,,,-75,17:03:36.307,
,,13423,11720,513,697,624,-0.156250,0.671875,0.144531,52.639999,104.160004,0.000000,0.719488,-0.074752,-0.420480,,0,0,0,0,0,,,,,,,,,-75,17:03:36.308,
,,13424,11740,515,697,619,-0.156250,0.671875,0.144531,52.639999,104.160004,0.000000,0.719488,-0.074752,-0.420480,,0,0,0,0,0,,,,,,,,,-75,17:03:36.336,
,,13425,11760,515,700,616,-0.156250,0.671875,0.144531,52.639999,104.160004,0.000000,0.719488,-0.074752,-0.420480,,0,0,0,0,0,,,,,,,,,-75,17:03:36.367,
,,13426,11780,516,702,612,-0.074219,0.570312,0.125000,50.400002,87.360001,97.440002,0.719488,-0.074752,-0.420480,,0,0,0,0,0,,,,,,,,,-75,17:03:36.368,
,,13427,11800,516,702,610,-0.074219,0.570312,0.125000,50.400002,87.360001,97.440002,0.719488,-0.074752,-0.420480,,0,0,0,0,0,,,,,,,,,-75,17:03:36.396,
,,13428,11820,516,705,608,-0.074219,0.570312,0.125000,50.400002,87.360001,97.440002,0.719488,-0.074752,-0.420480,,0,0,0,0,0,,,,,,,,,-75,17:03:36.427,
,,13429,11840,516,706,606,-0.074219,0.570312,0.125000,50.400002,87.360001,97.440002,0.719488,-0.074752,-0.420480,,0,0,0,0,0,,,,,,,,,-75,17:03:36.428,
,,13430,11860,515,706,604,-0.238281,0.921875,0.113281,38.080002,76.160004,163.520004,0.719488,-0.074752,-0.420480,,0,0,0,0,0,,,,,,,,,-75,17:03:36.456,
,,13431,11880,516,706,602,-0.238281,0.921875,0.113281,38.080002,76.160004,163.520004,0.719488,-0.074752,-0.420480,,0,0,0,0,0,,,,,,,,,-75,17:03:36.486,
,,13432,11900,514,706,601,-0.238281,0.921875,0.113281,38.080002,76.160004,163.520004,0.719488,-0.074752,-0.420480,,0,0,0,0,0,,,,,,,,,-75,17:03:36.487,
,,13433,11920,515,706,600,-0.566406,1.324219,0.042969,40.320000,79.519997,182.559998,0.719488,-0.074752,-0.420480,,0,0,0,0,0,,,,,,,,,-75,17:03:36.516,
,,13434,11940,513,706,598,-0.566406,1.324219,0.042969,40.320000,79.519997,182.559998,0.719488,-0.074752,-0.420480,,0,0,0,0,0,,,,,,,,,-75,17:03:36.546,
,,13435,11960,512,705,599,-0.566406,1.324219,0.042969,40.320000,79.519997,182.559998,0.719488,-0.074752,-0.420480,,0,0,0,0,0,,,,,,,,,-75,17:03:36.548,
,,13436,11980,513,704,599,-0.566406,1.324219,0.042969,40.320000,79.519997,182.559998,0.719488,-0.074752,-0.420480,,0,0,0,0,0,,,,,,,,,-75,17:03:36.576,
,,13437,12000,513,703,601,-0.945312,1.210938,0.257812,4.480000,15.680000,103.040001,0.719488,-0.074752,-0.420480,,0,0,0,0,0,,,,,,,,,-75,17:03:36.607,
,,13438,12020,513,701,599,-0.945312,1.210938,0.257812,4.480000,15.680000,103.040001,0.719488,-0.074752,-0.420480,,0,0,0,0,0,,,,,,,,,-75,17:03:36.608,
,,13439,12040,513,702,597,-0.945312,1.210938,0.257812,4.480000,15.680000,103.040001,0.719488,-0.074752,-0.420480,,0,0,0,0,0,,,,,,,,,-75,17:03:36.637,
,,13440,12060,512,701,584,-0.945312,1.210938,0.257812,4.480000,15.680000,103.040001,0.719488,-0.074752,-0.420480,,0,0,0,0,0,,,,,,,,,-75,17:03:36.667,
,,13441,12080,513,699,522,-0.585938,0.730469,-0.019531,-2.240000,-16.799999,-14.560000,0.719488,-0.074752,-0.420480,,0,0,0,0,0,,,,,,,,,-75,17:03:36.669,
,,13442,12100,512,699,461,-0.585938,0.730469,-0.019531,-2.240000,-16.799999,-14.560000,0.719488,-0.074752,-0.420480,,0,0,0,0,0,,,,,,,,,-75,17:03:36.697,
,,13443,12120,512,697,402,-0.585938,0.730469,-0.019531,-2.240000,-16.799999,-14.560000,0.719488,-0.074752,-0.420480,,0,0,0,0,0,,,,,,,,,-75,17:03:36.727,
,,13444,12140,508,696,362,-0.585938,0.730469,-0.019531,-2.240000,-16.799999,-14.560000,0.719488,-0.074752,-0.420480,,0,0,0,0,0,,,,,,,,,-75,17:03:36.729,
,,13445,12160,501,695,337,0.105469,0.976562,0.164062,19.040001,-84.000000,-38.080002,0.719488,-0.074752,-0.420480,,0,0,0,0,0,,,,,,,,,-75,17:03:36.756,
,,13446,12180,497,693,318,0.105469,0.976562,0.164062,19.040001,-84.000000,-38.080002,0.719488,-0.074752,-0.420480,,0,0,0,0,0,,,,,,,,,-75,17:03:36.787,
,,13447,12200,492,693,309,0.105469,0.976562,0.164062,19.040001,-84.000000,-38.080002,0.719488,-0.074752,-0.420480,,0,0,0,0,0,,,,,,,,,-75,17:03:36.788,
,,13448,12220,490,692,304,0.105469,0.976562,0.164062,19.040001,-84.000000,-38.080002,0.719488,-0.074752,-0.420480,,0,0,0,0,0,,,,,,,,,-75,17:03:36.816,
,,13449,12240,489,690,303,0.070312,0.679688,-0.003906,7.840000,-66.080002,-2.240000,0.719488,-0.074752,-0.420480,,0,0,0,0,0,,,,,,,,,-75,17:03:36.847,
,,13450,12260,491,690,300,0.070312,0.679688,-0.003906,7.840000,-66.080002,-2.240000,0.719488,-0.074752,-0.420480,,0,0,0,0,0,,,,,,,,,-75,17:03:36.848,
,,13451,12280,490,690,299,0.070312,0.679688,-0.003906,7.840000,-66.080002,-2.240000,0.719488,-0.074752,-0.420480,,0,0,0,0,0,,,,,,,,,-75,17:03:36.876,
,,13452,12300,491,688,298,0.070312,0.679688,-0.003906,7.840000,-66.080002,-2.240000,0.719488,-0.074752,-0.420480,,0,0,0,0,0,,,,,,,,,-75,17:03:36.907,
,,13453,12320,492,687,297,-0.425781,0.761719,-0.035156,-19.040001,-34.720001,11.200000,0.719488,-0.074752,-0.420480,,0,0,0,0,0,,,,,,,,,-75,17:03:36.908,
,,13454,12340,492,687,297,-0.425781,0.761719,-0.035156,-19.040001,-34.720001,11.200000,0.719488,-0.074752,-0.420480,,0,0,0,0,0,,,,,,,,,-75,17:03:36.936,
,,13455,12360,492,686,297,-0.425781,0.761719,-0.035156,-19.040001,-34.720001,11.200000,0.719488,-0.074752,-0.420480,,0,0,0,0,0,,,,,,,,,-75,17:03:36.967,
,,13456,12380,492,687,296,-0.222656,0.804688,-0.074219,-28.000000,-24.639999,-1.120000,0.719488,-0.074752,-0.420480,,0,0,0,0,0,,,,,,,,,-75,17:03:36.968,
,,13457,12400,492,684,295,-0.222656,0.804688,-0.074219,-28.000000,-24.639999,-1.120000,0.719488,-0.074752,-0.420480,,0,0,0,0,0,,,,,,,,,-75,17:03:36.996,
,,13458,12420,492,684,295,-0.222656,0.804688,-0.074219,-28.000000,-24.639999,-1.120000,0.719488,-0.074752,-0.420480,,0,0,0,0,0,,,,,,,,,-75,17:03:37.026,
,,13459,12440,493,682,293,-0.222656,0.804688,-0.074219,-28.000000,-24.639999,-1.120000,0.719488,-0.074752,-0.420480,,0,0,0,0,0,,,,,,,,,-75,17:03:37.028,
,,13460,12460,493,684,290,-0.062500,0.816406,-0.093750,-33.599998,-5.600000,-8.960000,0.719488,-0.074752,-0.420480,,0,0,0,0,0,,,,,,,,,-75,17:03:37.056,
,,13461,12480,494,682,287,-0.062500,0.816406,-0.093750,-33.599998,-5.600000,-8.960000,0.719488,-0.074752,-0.420480,,0,0,0,0,0,,,,,,,,,-75,17:03:37.087,
,,13462,12500,494,680,286,-0.062500,0.816406,-0.093750,-33.599998,-5.600000,-8.960000,0.719488,-0.074752,-0.420480,,0,0,0,0,0,,,,,,,,,-75,17:03:37.088,
,,13463,12520,494,679,281,-0.062500,0.816406,-0.093750,-33.599998,-5.600000,-8.960000,0.719488,-0.074752,-0.420480,,0,0,0,0,0,,,,,,,,,-75,17:03:37.116,
,,13464,12540,495,680,280,-0.238281,0.816406,-0.144531,-33.599998,12.320000,-10.080000,0.719488,-0.074752,-0.420480,,0,0,0,0,0,,,,,,,,,-75,17:03:37.147,
,,13465,12560,495,680,279,-0.238281,0.816406,-0.144531,-33.599998,12.320000,-10.080000,0.719488,-0.074752,-0.420480,,0,0,0,0,0,,,,,,,,,-75,17:03:37.148,
,,13466,12580,495,679,278,-0.238281,0.816406,-0.144531,-33.599998,12.320000,-10.080000,0.719488,-0.074752,-0.420480,,0,0,0,0,0,,,,,,,,,-75,17:03:37.177,
,,13467,12600,494,679,278,-0.238281,0.816406,-0.144531,-33.599998,12.320000,-10.080000,0.719488,-0.074752,-0.420480,,0,0,0,0,0,,,,,,,,,-75,17:03:37.207,
,,13468,12620,495,680,279,-0.242188,0.707031,-0.167969,-29.120001,12.320000,-14.560000,0.719488,-0.074752,-0.420480,,0,0,0,0,0,,,,,,,,,-75,17:03:37.208,
,,13469,12640,495,679,281,-0.242188,0.707031,-0.167969,-29.120001,12.320000,-14.560000,0.719488,-0.074752,-0.420480,,0,0,0,0,0,,,,,,,,,-75,17:03:37.237,
,,13470,12660,496,676,283,-0.242188,0.707031,-0.167969,-29.120001,12.320000,-14.560000,0.719488,-0.074752,-0.420480,,0,0,0,0,0,,,,,,,,,-75,17:03:37.266,
,,13471,12680,496,676,286,-0.242188,0.707031,-0.167969,-29.120001,12.320000,-14.560000,0.719488,-0.074752,-0.420480,,0,0,0,0,0,,,,,,,,,-75,17:03:37.267,
,,13472,12700,496,673,287,-0.171875,0.578125,-0.085938,-28.000000,-2.240000,-16.799999,0.719488,-0.074752,-0.420480,,0,0,0,0,0,,,,,,,,,-75,17:03:37.296,
,,13473,12720,495,673,290,-0.171875,0.578125,-0.085938,-28.000000,-2.240000,-16.799999,0.719488,-0.074752,-0.420480,,0,0,0,0,0,,,,,,,,,-75,17:03:37.327,
,,13474,12740,495,670,289,-0.171875,0.578125,-0.085938,-28.000000,-2.240000,-16.799999,0.719488,-0.074752,-0.420480,,0,0,0,0,0,,,,,,,,,-75,17:03:37.329,
,,13475,12760,495,668,289,-0.171875,0.578125,-0.085938,-28.000000,-2.240000,-21.280001,0.719488,-0.074752,-0.420480,,0,0,0,0,0,,,,,,,,,-75,17:03:37.357,
,,13476,12780,496,666,289,-0.121094,0.800781,-0.171875,-35.840000,-15.680000,-21.280001,0.719488,-0.074752,-0.420480,,0,0,0,0,0,,,,,,,,,-75,17:03:37.387,
,,13477,12800,497,664,288,-0.121094,0.800781,-0.171875,-35.840000,-15.680000,-21.280001,0.747520,-0.046720,-0.476544,,0,0,0,0,0,,,,,,,,,-75,17:03:37.388,
,,13478,12820,496,665,289,-0.121094,0.800781,-0.171875,-35.840000,-15.680000,-21.280001,0.747520,-0.046720,-0.476544,,0,0,0,0,0,,,,,,,,,-75,17:03:37.416,
,,13479,12840,495,665,290,-0.417969,0.714844,-0.027344,-51.520000,-22.400000,-25.760000,0.747520,-0.046720,-0.476544,,0,0,0,0,0,,,,,,,,,-75,17:03:37.447,
,,13480,12860,495,666,294,-0.417969,0.714844,-0.027344,-51.520000,-22.400000,-25.760000,0.747520,-0.046720,-0.476544,,0,0,0,0,0,,,,,,,,,-75,17:03:37.448,
,,13481,12880,494,668,308,-0.417969,0.714844,-0.027344,-51.520000,-22.400000,-25.760000,0.747520,-0.046720,-0.476544,,0,0,0,0,0,,,,,,,,,-75,17:03:37.476,
,,13482,12900,496,673,330,-0.417969,0.714844,-0.027344,-51.520000,-22.400000,-25.760000,0.747520,-0.046720,-0.476544,,0,0,0,0,0,,,,,,,,,-75,17:03:37.507,
,,13483,12920,501,679,399,-0.054688,0.875000,0.050781,-63.840000,-11.200000,-15.680000,0.747520,-0.046720,-0.476544,,0,0,0,0,0,,,,,,,,,-75,17:03:37.508,
,,13484,12940,510,686,456,-0.054688,0.875000,0.050781,-63.840000,-11.200000,-15.680000,0.747520,-0.046720,-0.476544,,0,0,0,0,0,,,,,,,,,-75,17:03:37.536,
,,13485,12960,512,692,490,-0.054688,0.875000,0.050781,-63.840000,-11.200000,-15.680000,0.747520,-0.046720,-0.476544,,0,0,0,0,0,,,,,,,,,-75,17:03:37.566,
,,13486,12980,513,695,509,-0.054688,0.875000,0.050781,-63.840000,-11.200000,-15.680000,0.747520,-0.046720,-0.476544,,0,0,0,0,0,,,,,,,,,-75,17:03:37.568,
,,13487,13000,513,698,517,0.542969,1.539062,-0.496094,-54.880001,22.400000,-6.720000,0.747520,-0.046720,-0.476544,,0,0,0,0,0,,,,,,,,,-75,17:03:37.597,
,,13488,13020,513,698,520,0.542969,1.539062,-0.496094,-54.880001,22.400000,-6.720000,0.747520,-0.046720,-0.476544,,0,0,0,0,0,,,,,,,,,-75,17:03:37.627,
,,13489,13040,511,698,521,0.542969,1.539062,-0.496094,-54.880001,22.400000,-6.720000,0.747520,-0.046720,-0.476544,,0,0,0,0,0,,,,,,,,,-75,17:03:37.628,
,,13490,13060,510,698,521,0.542969,1.539062,-0.496094,-54.880001,22.400000,-6.720000,0.747520,-0.046720,-0.476544,,0,0,0,0,0,,,,,,,,,-75,17:03:37.656,
,,13491,13080,509,699,523,0.726562,0.785156,-0.148438,17.920000,79.519997,6.720000,0.747520,-0.046720,-0.476544,,0,0,0,0,0,,,,,,,,,-75,17:03:37.699,
,,13492,13100,507,699,526,0.726562,0.785156,-0.148438,17.920000,79.519997,6.720000,0.747520,-0.046720,-0.476544,,0,0,0,0,0,,,,,,,,,-75,17:03:37.701,
,,13493,13120,507,698,527,0.726562,0.785156,-0.148438,17.920000,79.519997,6.720000,0.747520,-0.046720,-0.476544,,0,0,0,0,0,,,,,,,,,-75,17:03:37.714,
,,13494,13140,505,698,531,0.304688,0.988281,0.082031,23.520000,97.440002,66.080002,0.747520,-0.046720,-0.476544,,0,0,0,0,0,,,,,,,,,-75,17:03:37.746,
,,13495,13160,504,699,532,0.304688,0.988281,0.082031,23.520000,97.440002,66.080002,0.747520,-0.046720,-0.476544,,0,0,0,0,0,,,,,,,,,-75,17:03:37.747,
,,13496,13180,503,699,533,0.304688,0.988281,0.082031,23.520000,97.440002,66.080002,0.747520,-0.046720,-0.476544,,0,0,0,0,0,,,,,,,,,-75,17:03:37.785,
,,13497,13200,501,697,529,0.304688,0.988281,0.082031,23.520000,97.440002,66.080002,0.747520,-0.046720,-0.476544,,0,0,0,0,0,,,,,,,,,-75,17:03:37.805,
,,13498,13220,500,698,502,0.023438,0.753906,0.210938,0.000000,41.439999,86.239998,0.747520,-0.046720,-0.476544,,0,0,0,0,0,,,,,,,,,-75,17:03:37.807,
,,13499,13240,498,701,467,0.023438,0.753906,0.210938,0.000000,41.439999,86.239998,0.747520,-0.046720,-0.476544,,0,0,0,0,0,,,,,,,,,-75,17:03:37.835,
,,13500,13260,496,702,439,0.023438,0.753906,0.210938,0.000000,41.439999,86.239998,0.747520,-0.046720,-0.476544,,0,0,0,0,0,,,,,,,,,-75,17:03:37.865,
,,13501,13280,497,702,426,0.023438,0.753906,0.210938,0.000000,41.439999,86.239998,0.747520,-0.046720,-0.476544,,0,0,0,0,0,,,,,,,,,-75,17:03:37.895,
,,13502,13300,494,701,418,-0.050781,0.605469,0.371094,-12.320000,12.320000,78.400002,0.747520,-0.046720,-0.476544,,0,0,0,0,0,,,,,,,,,-75,17:03:37.897,
,,13503,13320,494,703,421,-0.050781,0.605469,0.371094,-12.320000,12.320000,78.400002,0.747520,-0.046720,-0.476544,,0,0,0,0,0,,,,,,,,,-75,17:03:37.925,
,,13504,13340,493,702,421,-0.050781,0.605469,0.371094,-12.320000,12.320000,78.400002,0.747520,-0.046720,-0.476544,,0,0,0,0,0,,,,,,,,,-75,17:03:37.927,
,,13505,13360,492,702,413,-0.050781,0.605469,0.371094,-12.320000,12.320000,78.400002,0.747520,-0.046720,-0.476544,,0,0,0,0,0,,,,,,,,,-75,17:03:37.955,
,,13506,13380,491,701,400,-0.601562,0.675781,-0.343750,-14.560000,22.400000,76.160004,0.747520,-0.046720,-0.476544,,0,0,0,0,0,,,,,,,,,-75,17:03:37.985,
,,13507,13400,490,700,385,-0.601562,0.675781,-0.343750,-14.560000,22.400000,76.160004,0.747520,-0.046720,-0.476544,,0,0,0,0,0,,,,,,,,,-75,17:03:37.987,
,,13508,13420,489,700,373,-0.601562,0.675781,-0.343750,-14.560000,22.400000,76.160004,0.747520,-0.046720,-0.476544,,0,0,0,0,0,,,,,,,,,-75,17:03:38.015,
,,13509,13440,490,701,365,-0.601562,0.675781,-0.343750,-14.560000,22.400000,76.160004,0.747520,-0.046720,-0.476544,,0,0,0,0,0,,,,,,,,,-75,17:03:38.045,
,,13510,13460,490,703,359,0.214844,0.691406,0.070312,8.960000,23.520000,2.240000,0.747520,-0.046720,-0.476544,,0,0,0,0,0,,,,,,,,,-75,17:03:38.047,
,,13511,13480,490,706,353,0.214844,0.691406,0.070312,8.960000,23.520000,2.240000,0.747520,-0.046720,-0.476544,,0,0,0,0,0,,,,,,,,,-75,17:03:38.075,
,,13512,13500,490,708,344,0.214844,0.691406,0.070312,8.960000,23.520000,2.240000,0.747520,-0.046720,-0.476544,,0,0,0,0,0,,,,,,,,,-75,17:03:38.107,
,,13513,13520,492,711,334,0.214844,0.691406,0.070312,8.960000,23.520000,2.240000,0.747520,-0.046720,-0.476544,,0,0,0,0,0,,,,,,,,,-75,17:03:38.137,
,,13514,13540,495,717,324,-0.164062,0.644531,-0.117188,4.480000,22.400000,12.320000,0.747520,-0.046720,-0.476544,,0,0,0,0,0,,,,,,,,,-75,17:03:38.138,
,,13515,13560,494,720,315,-0.164062,0.644531,-0.117188,4.480000,22.400000,12.320000,0.747520,-0.046720,-0.476544,,0,0,0,0,0,,,,,,,,,-75,17:03:38.167,
,,13516,13580,494,722,306,-0.164062,0.644531,-0.117188,4.480000,22.400000,12.320000,0.747520,-0.046720,-0.476544,,0,0,0,0,0,,,,,,,,,-75,17:03:38.168,
,,13517,13600,494,723,299,-0.050781,0.460938,0.257812,11.200000,-19.040001,5.600000,0.747520,-0.046720,-0.476544,,0,0,0,0,0,,,,,,,,,-75,17:03:38.196,
,,13518,13620,495,725,294,-0.050781,0.460938,0.257812,11.200000,-19.040001,5.600000,0.747520,-0.046720,-0.476544,,0,0,0,0,0,,,,,,,,,-75,17:03:38.227,
,,13519,13640,495,726,290,-0.050781,0.460938,0.257812,11.200000,-19.040001,5.600000,0.747520,-0.046720,-0.476544,,0,0,0,0,0,,,,,,,,,-75,17:03:38.228,
,,13520,13660,494,726,286,-0.050781,0.460938,0.257812,11.200000,-19.040001,5.600000,0.747520,-0.046720,-0.476544,,0,0,0,0,0,,,,,,,,,-75,17:03:38.256,
,,13521,13680,495,725,283,0.054688,0.136719,0.105469,12.320000,-20.160000,12.320000,0.747520,-0.046720,-0.476544,,0,0,0,0,0,,,,,,,,,-75,17:03:38.287,
,,13522,13700,495,726,282,0.054688,0.136719,0.105469,12.320000,-20.160000,12.320000,0.747520,-0.046720,-0.476544,,0,0,0,0,0,,,,,,,,,-75,17:03:38.288,
,,13523,13720,497,725,281,0.054688,0.136719,0.105469,12.320000,-20.160000,12.320000,0.747520,-0.046720,-0.476544,,0,0,0,0,0,,,,,,,,,-75,17:03:38.316,
,,13524,13740,498,724,281,0.054688,0.136719,0.105469,12.320000,-20.160000,12.320000,0.747520,-0.046720,-0.476544,,0,0,0,0,0,,,,,,,,,-75,17:03:38.347,
,,13525,13760,498,725,279,0.097656,0.113281,-0.023438,3.360000,-25.760000,4.480000,0.747520,-0.046720,-0.476544,,0,0,0,0,0,,,,,,,,,-75,17:03:38.348,
,,13526,13780,498,724,282,0.097656,0.113281,-0.023438,3.360000,-25.760000,4.480000,0.747520,-0.046720,-0.476544,,0,0,0,0,0,,,,,,,,,-75,17:03:38.376,
,,13527,13800,499,725,281,0.097656,0.113281,-0.023438,3.360000,-25.760000,4.480000,0.747520,-0.046720,-0.476544,,0,0,0,0,0,,,,,,,,,-75,17:03:38.407,
,,13528,13820,500,725,280,0.097656,0.113281,-0.023438,3.360000,-25.760000,4.480000,0.747520,-0.046720,-0.476544,,0,0,0,0,0,,,,,,,,,-75,17:03:38.408,
,,13529,13840,499,725,280,0.097656,0.132812,0.066406,5.600000,-8.960000,1.120000,0.747520,-0.046720,-0.476544,,0,0,0,0,0,,,,,,,,,-75,17:03:38.436,
,,13530,13860,499,726,278,0.097656,0.132812,0.066406,5.600000,-8.960000,1.120000,0.747520,-0.046720,-0.476544,,0,0,0,0,0,,,,,,,,,-75,17:03:38.465,
,,13531,13880,499,728,276,0.097656,0.132812,0.066406,5.600000,-8.960000,1.120000,0.747520,-0.046720,-0.476544,,0,0,0,0,0,,,,,,,,,-75,17:03:38.467,
,,13532,13900,498,727,275,0.097656,0.132812,0.066406,5.600000,-8.960000,1.120000,0.747520,-0.046720,-0.476544,,0,0,0,0,0,,,,,,,,,-75,17:03:38.497,
,,13533,13920,498,730,273,-0.015625,0.183594,0.140625,11.200000,-17.920000,7.840000,0.747520,-0.046720,-0.476544,,0,0,0,0,0,,,,,,,,,-75,17:03:38.526,
,,13534,13940,499,729,271,-0.015625,0.183594,0.140625,11.200000,-17.920000,7.840000,0.747520,-0.046720,-0.476544,,0,0,0,0,0,,,,,,,,,-75,17:03:38.527,
,,13535,13960,497,730,269,-0.015625,0.183594,0.140625,11.200000,-17.920000,7.840000,0.747520,-0.046720,-0.476544,,0,0,0,0,0,,,,,,,,,-75,17:03:38.556,
,,13536,13980,496,729,267,0.085938,0.203125,0.152344,13.440001,-50.400002,13.440001,0.747520,-0.046720,-0.476544,,0,0,0,0,0,,,,,,,,,-75,17:03:38.587,
,,13537,14000,496,731,266,0.085938,0.203125,0.152344,13.440001,-50.400002,13.440001,0.747520,-0.046720,-0.476544,,0,0,0,0,0,,,,,,,,,-75,17:03:38.589,
,,13538,14020,496,730,264,0.085938,0.203125,0.152344,13.440001,-50.400002,13.440001,0.747520,-0.046720,-0.476544,,0,0,0,0,0,,,,,,,,,-75,17:03:38.616,
,,13539,14040,495,729,262,0.085938,0.203125,0.152344,13.440001,-50.400002,13.440001,0.747520,-0.046720,-0.476544,,0,0,0,0,0,,,,,,,,,-75,17:03:38.647,
,,13540,14060,495,729,261,-0.003906,0.132812,0.089844,7.840000,-64.959999,17.920000,0.747520,-0.046720,-0.476544,,0,0,0,0,0,,,,,,,,,-75,17:03:38.648,
,,13541,14080,496,730,259,-0.003906,0.132812,0.089844,7.840000,-64.959999,17.920000,0.747520,-0.046720,-0.476544,,0,0,0,0,0,,,,,,,,,-75,17:03:38.677,
,,13542,14100,496,728,259,-0.003906,0.132812,0.089844,7.840000,-64.959999,17.920000,0.747520,-0.046720,-0.476544,,0,0,0,0,0,,,,,,,,,-75,17:03:38.707,
,,13543,14120,497,729,261,-0.003906,0.132812,0.089844,7.840000,-64.959999,17.920000,0.747520,-0.046720,-0.476544,,0,0,0,0,0,,,,,,,,,-75,17:03:38.709,
,,13544,14140,496,729,261,-0.027344,0.078125,0.183594,1.120000,-77.279999,14.560000,0.747520,-0.046720,-0.476544,,0,0,0,0,0,,,,,,,,,-75,17:03:38.736,
,,13545,14160,497,729,262,-0.027344,0.078125,0.183594,1.120000,-77.279999,14.560000,0.747520,-0.046720,-0.476544,,0,0,0,0,0,,,,,,,,,-75,17:03:38.767,
,,13546,14180,498,729,262,-0.027344,0.078125,0.183594,1.120000,-77.279999,14.560000,0.747520,-0.046720,-0.476544,,0,0,0,0,0,,,,,,,,,-75,17:03:38.768,
,,13547,14200,498,728,263,-0.027344,0.078125,0.183594,1.120000,-77.279999,14.560000,0.747520,-0.046720,-0.476544,,0,0,0,0,0,,,,,,,,,-75,17:03:38.796,
,,13548,14220,497,729,264,0.062500,0.195312,0.125000,-4.480000,-72.800003,5.600000,0.747520,-0.046720,-0.476544,,0,0,0,0,0,,,,,,,,,-75,17:03:38.827,
,,13549,14240,497,730,263,0.062500,0.195312,0.125000,-4.480000,-72.800003,5.600000,0.747520,-0.046720,-0.476544,,0,0,0,0,0,,,,,,,,,-75,17:03:38.828,
,,13550,14260,498,728,264,0.062500,0.195312,0.125000,-4.480000,-72.800003,5.600000,0.747520,-0.046720,-0.476544,,0,0,0,0,0,,,,,,,,,-75,17:03:38.856,
,,13551,14280,498,728,264,0.062500,0.195312,0.125000,-4.480000,-72.800003,5.600000,0.747520,-0.046720,-0.476544,,0,0,0,0,0,,,,,,,,,-75,17:03:38.886,
,,13552,14300,499,728,264,0.074219,0.250000,0.070312,-12.320000,-64.959999,6.720000,0.747520,-0.046720,-0.476544,,0,0,0,0,0,,,,,,,,,-75,17:03:38.888,
,,13553,14320,498,727,264,0.074219,0.250000,0.070312,-12.320000,-64.959999,6.720000,0.747520,-0.046720,-0.476544,,0,0,0,0,0,,,,,,,,,-75,17:03:38.916,
,,13554,14340,498,727,264,0.074219,0.250000,0.070312,-12.320000,-64.959999,6.720000,0.747520,-0.046720,-0.476544,,0,0,0,0,0,,,,,,,,,-75,17:03:38.947,
,,13555,14360,498,730,263,0.070312,0.414062,0.003906,-19.040001,-57.119999,4.480000,0.747520,-0.046720,-0.476544,,0,0,0,0,0,,,,,,,,,-75,17:03:38.948,
,,13556,14380,500,726,263,0.070312,0.414062,0.003906,-19.040001,-57.119999,4.480000,0.747520,-0.046720,-0.476544,,0,0,0,0,0,,,,,,,,,-75,17:03:38.977,
,,13557,14400,498,726,262,0.070312,0.414062,0.003906,-19.040001,-57.119999,4.480000,0.981120,-0.121472,-0.280320,,0,0,0,0,0,,,,,,,,,-75,17:03:39.007,
,,13558,14420,498,728,263,0.070312,0.414062,0.003906,-19.040001,-57.119999,4.480000,0.981120,-0.121472,-0.280320,,0,0,0,0,0,,,,,,,,,-75,17:03:39.008,
,,13559,14440,498,726,262,0.074219,0.679688,0.066406,-23.520000,-60.480000,4.480000,0.981120,-0.121472,-0.280320,,0,0,0,0,0,,,,,,,,,-75,17:03:39.037,
,,13560,14460,498,728,261,0.074219,0.679688,0.066406,-23.520000,-60.480000,4.480000,0.981120,-0.121472,-0.280320,,0,0,0,0,0,,,,,,,,,-75,17:03:39.066,
,,13561,14480,497,726,263,0.074219,0.679688,0.066406,-23.520000,-60.480000,4.480000,0.981120,-0.121472,-0.280320,,0,0,0,0,0,,,,,,,,,-75,17:03:39.068,
,,13562,14500,498,726,263,0.074219,0.679688,0.066406,-23.520000,-60.480000,4.480000,0.981120,-0.121472,-0.280320,,0,0,0,0,0,,,,,,,,,-75,17:03:39.096,
,,13563,14520,498,728,263,-0.109375,0.750000,0.019531,-28.000000,-75.040001,3.360000,0.981120,-0.121472,-0.280320,,0,0,0,0,0,,,,,,,,,-75,17:03:39.127,
,,13564,14540,498,728,267,-0.109375,0.750000,0.019531,-28.000000,-75.040001,3.360000,0.981120,-0.121472,-0.280320,,0,0,0,0,0,,,,,,,,,-75,17:03:39.128,
,,13565,14560,498,728,271,-0.109375,0.750000,0.019531,-28.000000,-75.040001,3.360000,0.981120,-0.121472,-0.280320,,0,0,0,0,0,,,,,,,,,-75,17:03:39.156,
,,13566,14580,498,729,280,-0.109375,0.750000,0.019531,-28.000000,-75.040001,3.360000,0.981120,-0.121472,-0.280320,,0,0,0,0,0,,,,,,,,,-75,17:03:39.187,
,,13567,14600,497,728,288,0.039062,0.796875,0.082031,-30.240000,-92.959999,-14.560000,0.981120,-0.121472,-0.280320,,0,0,0,0,0,,,,,,,,,-75,17:03:39.188,
,,13568,14620,497,728,296,0.039062,0.796875,0.082031,-30.240000,-92.959999,-14.560000,0.981120,-0.121472,-0.280320,,0,0,0,0,0,,,,,,,,,-75,17:03:39.216,
,,13569,14640,497,731,310,0.039062,0.796875,0.082031,-30.240000,-92.959999,-14.560000,0.981120,-0.121472,-0.280320,,0,0,0,0,0,,,,,,,,,-75,17:03:39.247,
,,13570,14660,497,730,323,0.039062,0.796875,0.082031,-30.240000,-92.959999,-14.560000,0.981120,-0.121472,-0.280320,,0,0,0,0,0,,,,,,,,,-75,17:03:39.248,
,,13571,14680,497,729,335,0.195312,0.937500,0.000000,-32.480000,-81.760002,-24.639999,0.981120,-0.121472,-0.280320,,0,0,0,0,0,,,,,,,,,-75,17:03:39.276,
,,13572,14700,496,727,348,0.195312,0.937500,0.000000,-32.480000,-81.760002,-24.639999,0.981120,-0.121472,-0.280320,,0,0,0,0,0,,,,,,,,,-75,17:03:39.307,
,,13573,14720,495,725,359,0.195312,0.937500,0.000000,-32.480000,-81.760002,-24.639999,0.981120,-0.121472,-0.280320,,0,0,0,0,0,,,,,,,,,-75,17:03:39.308,
,,13574,14740,496,724,367,0.195312,0.937500,0.000000,-32.480000,-81.760002,-24.639999,0.981120,-0.121472,-0.280320,,0,0,0,0,0,,,,,,,,,-75,17:03:39.336,
,,13575,14760,495,723,372,0.011719,0.894531,-0.195312,-32.480000,-17.920000,-38.080002,0.981120,-0.121472,-0.280320,,0,0,0,0,0,,,,,,,,,-80,17:03:39.367,
,,13576,14780,493,720,377,0.011719,0.894531,-0.195312,-32.480000,-17.920000,-38.080002,0.981120,-0.121472,-0.280320,,0,0,0,0,0,,,,,,,,,-80,17:03:39.368,
,,13577,14800,491,718,377,0.011719,0.894531,-0.195312,-32.480000,-17.920000,-38.080002,0.981120,-0.121472,-0.280320,,0,0,0,0,0,,,,,,,,,-80,17:03:39.396,
,,13578,14820,489,716,377,-0.097656,0.894531,-0.242188,-12.320000,48.160000,-84.000000,0.981120,-0.121472,-0.280320,,0,0,0,0,0,,,,,,,,,-80,17:03:39.426,
,,13579,14840,486,716,372,-0.097656,0.894531,-0.242188,-12.320000,48.160000,-84.000000,0.981120,-0.121472,-0.280320,,0,0,0,0,0,,,,,,,,,-80,17:03:39.428,
,,13580,14860,483,714,367,-0.097656,0.894531,-0.242188,-12.320000,48.160000,-84.000000,0.981120,-0.121472,-0.280320,,0,0,0,0,0,,,,,,,,,-80,17:03:39.456,
,,13581,14880,479,714,360,-0.097656,0.894531,-0.242188,-12.320000,48.160000,-84.000000,0.981120,-0.121472,-0.280320,,0,0,0,0,0,,,,,,,,,-80,17:03:39.487,
,,13582,14900,474,713,346,-0.109375,1.058594,-0.101562,6.720000,36.959999,-96.320000,0.981120,-0.121472,-0.280320,,0,0,0,0,0,,,,,,,,,-80,17:03:39.488,
,,13583,14920,472,715,330,-0.109375,1.058594,-0.101562,6.720000,36.959999,-96.320000,0.981120,-0.121472,-0.280320,,0,0,0,0,0,,,,,,,,,-80,17:03:39.547,
,,13584,14940,472,713,316,-0.109375,1.058594,-0.101562,6.720000,36.959999,-96.320000,0.981120,-0.121472,-0.280320,,0,0,0,0,0,,,,,,,,,-80,17:03:39.548,
,,13585,14960,472,713,309,0.421875,0.980469,0.125000,5.600000,-8.960000,-38.080002,0.981120,-0.121472,-0.280320,,0,0,0,0,0,,,,,,,,,-80,17:03:39.576,
,,13586,14980,472,712,303,0.421875,0.980469,0.125000,5.600000,-8.960000,-38.080002,0.981120,-0.121472,-0.280320,,0,0,0,0,0,,,,,,,,,-80,17:03:39.607,
,,13587,15000,473,710,299,0.421875,0.980469,0.125000,5.600000,-8.960000,-38.080002,0.981120,-0.121472,-0.280320,,0,0,0,0,0,,,,,,,,,-80,17:03:39.608,
,,13588,15020,474,710,294,0.421875,0.980469,0.125000,5.600000,-8.960000,-38.080002,0.981120,-0.121472,-0.280320,,0,0,0,0,0,,,,,,,,,-80,17:03:39.636,
,,13589,15040,474,710,289,-0.023438,0.925781,-0.128906,-6.720000,-10.080000,-7.840000,0.981120,-0.121472,-0.280320,,0,0,0,0,0,,,,,,,,,-80,17:03:39.666,
,,13590,15060,475,709,286,-0.023438,0.925781,-0.128906,-6.720000,-10.080000,-7.840000,0.981120,-0.121472,-0.280320,,0,0,0,0,0,,,,,,,,,-80,17:03:39.667,
,,13591,15080,476,710,282,-0.023438,0.925781,-0.128906,-6.720000,-10.080000,-7.840000,0.981120,-0.121472,-0.280320,,0,0,0,0,0,,,,,,,,,-80,17:03:39.696,
,,13592,15100,477,709,279,-0.023438,0.925781,-0.128906,-6.720000,-10.080000,-7.840000,0.981120,-0.121472,-0.280320,,0,0,0,0,0,,,,,,,,,-80,17:03:39.727,
,,13593,15120,478,709,276,-0.011719,0.917969,-0.031250,-15.680000,-1.120000,-7.840000,0.981120,-0.121472,-0.280320,,0,0,0,0,0,,,,,,,,,-80,17:03:39.728,
,,13594,15140,478,707,273,-0.011719,0.917969,-0.031250,-15.680000,-1.120000,-7.840000,0.981120,-0.121472,-0.280320,,0,0,0,0,0,,,,,,,,,-80,17:03:39.757,
,,13595,15160,478,708,272,-0.011719,0.917969,-0.031250,-15.680000,-1.120000,-7.840000,0.981120,-0.121472,-0.280320,,0,0,0,0,0,,,,,,,,,-80,17:03:39.787,
,,13596,15180,480,708,271,-0.058594,0.945312,-0.171875,-15.680000,13.440001,-7.840000,0.981120,-0.121472,-0.280320,,0,0,0,0,0,,,,,,,,,-80,17:03:39.789,
,,13597,15200,480,707,267,-0.058594,0.945312,-0.171875,-15.680000,13.440001,-7.840000,0.981120,-0.121472,-0.280320,,0,0,0,0,0,,,,,,,,,-80,17:03:39.816,
,,13598,15220,479,705,268,-0.058594,0.945312,-0.171875,-15.680000,13.440001,-7.840000,0.981120,-0.121472,-0.280320,,0,0,0,0,0,,,,,,,,,-80,17:03:39.847,
,,13599,15240,481,706,267,-0.058594,0.945312,-0.171875,-15.680000,13.440001,-7.840000,0.981120,-0.121472,-0.280320,,0,0,0,0,0,,,,,,,,,-80,17:03:39.848,
,,13600,15260,479,703,266,-0.054688,0.898438,-0.046875,-17.920000,12.320000,-10.080000,0.981120,-0.121472,-0.280320,,0,0,0,0,0,,,,,,,,,-80,17:03:39.876,
,,13601,15280,481,705,266,-0.054688,0.898438,-0.046875,-17.920000,12.320000,-10.080000,0.981120,-0.121472,-0.280320,,0,0,0,0,0,,,,,,,,,-80,17:03:39.907,
,,13602,15300,480,704,267,-0.054688,0.898438,-0.046875,-17.920000,12.320000,-10.080000,0.981120,-0.121472,-0.280320,,0,0,0,0,0,,,,,,,,,-80,17:03:39.908,
,,13603,15320,480,704,266,-0.054688,0.898438,-0.046875,-17.920000,12.320000,-10.080000,0.981120,-0.121472,-0.280320,,0,0,0,0,0,,,,,,,,,-80,17:03:39.937,
,,13604,15340,480,704,265,-0.050781,0.960938,-0.019531,-15.680000,17.920000,-10.080000,0.981120,-0.121472,-0.280320,,0,0,0,0,0,,,,,,,,,-80,17:03:39.967,
,,13605,15360,480,704,267,-0.050781,0.960938,-0.019531,-15.680000,17.920000,-10.080000,0.981120,-0.121472,-0.280320,,0,0,0,0,0,,,,,,,,,-80,17:03:39.968,
,,13606,15380,481,703,267,-0.050781,0.960938,-0.019531,-15.680000,17.920000,-10.080000,0.981120,-0.121472,-0.280320,,0,0,0,0,0,,,,,,,,,-80,17:03:39.996,
,,13607,15400,482,703,266,-0.050781,0.960938,-0.019531,-15.680000,17.920000,-10.080000,0.981120,-0.121472,-0.280320,,0,0,0,0,0,,,,,,,,,-80,17:03:40.027,
,,13608,15420,480,702,267,0.144531,0.886719,-0.128906,-17.920000,22.400000,-8.960000,0.981120,-0.121472,-0.280320,,0,0,0,0,0,,,,,,,,,-80,17:03:40.028,
,,13609,15440,480,702,265,0.144531,0.886719,-0.128906,-17.920000,22.400000,-8.960000,0.981120,-0.121472,-0.280320,,0,0,0,0,0,,,,,,,,,-80,17:03:40.056,
,,13610,15460,480,701,265,0.144531,0.886719,-0.128906,-17.920000,22.400000,-8.960000,0.981120,-0.121472,-0.280320,,0,0,0,0,0,,,,,,,,,-80,17:03:40.086,
,,13611,15480,479,703,266,0.144531,0.886719,-0.128906,-17.920000,22.400000,-8.960000,0.981120,-0.121472,-0.280320,,0,0,0,0,0,,,,,,,,,-80,17:03:40.088,
,,13612,15500,479,704,268,-0.066406,0.878906,0.031250,-21.280001,34.720001,-10.080000,0.981120,-0.121472,-0.280320,,0,0,0,0,0,,,,,,,,,-80,17:03:40.116,
,,13613,15520,476,704,269,-0.066406,0.878906,0.031250,-21.280001,34.720001,-10.080000,0.981120,-0.121472,-0.280320,,0,0,0,0,0,,,,,,,,,-80,17:03:40.147,
,,13614,15540,475,702,271,-0.066406,0.878906,0.031250,-21.280001,34.720001,-10.080000,0.981120,-0.121472,-0.280320,,0,0,0,0,0,,,,,,,,,-80,17:03:40.148,
,,13615,15560,476,701,271,-0.066406,0.878906,0.031250,-21.280001,34.720001,-10.080000,0.981120,-0.121472,-0.280320,,0,0,0,0,0,,,,,,,,,-80,17:03:40.176,
,,13616,15580,475,699,272,0.132812,0.945312,-0.140625,-23.520000,43.680000,-10.080000,0.981120,-0.121472,-0.280320,,0,0,0,0,0,,,,,,,,,-80,17:03:40.206,
,,13617,15600,474,698,275,0.132812,0.945312,-0.140625,-23.520000,43.680000,-10.080000,0.981120,-0.121472,-0.280320,,0,0,0,0,0,,,,,,,,,-80,17:03:40.208,
,,13618,15620,471,695,275,0.132812,0.945312,-0.140625,-23.520000,43.680000,-10.080000,0.981120,-0.121472,-0.280320,,0,0,0,0,0,,,,,,,,,-80,17:03:40.236,
,,13619,15640,471,695,276,0.152344,0.984375,-0.152344,-33.599998,52.639999,-4.480000,0.981120,-0.121472,-0.280320,,0,0,0,0,0,,,,,,,,,-80,17:03:40.267,
,,13620,15660,470,694,276,0.152344,0.984375,-0.152344,-33.599998,52.639999,-4.480000,0.981120,-0.121472,-0.280320,,0,0,0,0,0,,,,,,,,,-80,17:03:40.268,
,,13621,15680,471,692,275,0.152344,0.984375,-0.152344,-33.599998,52.639999,-4.480000,0.981120,-0.121472,-0.280320,,0,0,0,0,0,,,,,,,,,-80,17:03:40.296,
,,13622,15700,473,692,274,0.152344,0.984375,-0.152344,-33.599998,52.639999,-4.480000,0.981120,-0.121472,-0.280320,,0,0,0,0,0,,,,,,,,,-80,17:03:40.327,
,,13623,15720,471,695,273,0.066406,0.882812,-0.199219,-38.080002,66.080002,-2.240000,0.981120,-0.121472,-0.280320,,0,0,0,0,0,,,,,,,,,-80,17:03:40.328,
,,13624,15740,472,698,274,0.066406,0.882812,-0.199219,-38.080002,66.080002,-2.240000,0.981120,-0.121472,-0.280320,,0,0,0,0,0,,,,,,,,,-80,17:03:40.356,
,,13625,15760,472,700,273,0.066406,0.882812,-0.199219,-38.080002,66.080002,-2.240000,0.981120,-0.121472,-0.280320,,0,0,0,0,0,,,,,,,,,-80,17:03:40.387,
,,13626,15780,472,701,271,0.066406,0.882812,-0.199219,-38.080002,66.080002,-2.240000,0.981120,-0.121472,-0.280320,,0,0,0,0,0,,,,,,,,,-80,17:03:40.388,
,,13627,15800,475,703,271,-0.171875,0.746094,-0.285156,-34.720001,81.760002,4.480000,0.981120,-0.121472,-0.280320,,0,0,0,0,0,,,,,,,,,-80,17:03:40.416,
,,13628,15820,477,703,269,-0.171875,0.746094,-0.285156,-34.720001,81.760002,4.480000,0.981120,-0.121472,-0.280320,,0,0,0,0,0,,,,,,,,,-80,17:03:40.507,
,,13629,15840,477,704,269,-0.171875,0.746094,-0.285156,-34.720001,81.760002,4.480000,0.981120,-0.121472,-0.280320,,0,0,0,0,0,,,,,,,,,-80,17:03:40.508,
,,13630,15860,480,701,269,-0.171875,0.746094,-0.285156,-34.720001,81.760002,4.480000,0.981120,-0.121472,-0.280320,,0,0,0,0,0,,,,,,,,,-80,17:03:40.510,
,,13631,15880,479,700,270,-0.269531,0.949219,-0.199219,-21.280001,86.239998,8.960000,0.981120,-0.121472,-0.280320,,0,0,0,0,0,,,,,,,,,-80,17:03:40.512,
