SensoriaRawDataFormat: 4.0
FirmwareRevision: 1.1.5.238R
DeviceName: Sensoria-C1-52AB
SerialNumber: C88ED8C159C3D31B
Location: 0x0001
Start: 2024-09-01T17:33:12+02:00
SamplingFrequency: 50
AfeName: N/A
AfeUnits: N/A
(null)
(null)
(null)
(null)
(null)
(null)
(null)
(null)

Tag,AutoTag,Tick,T,S0,S1,S2,Ax,Ay,Az,Gx,Gy,Gz,Mx,My,Mz,HRM,S3,S4,S5,S6,S7,CS0,CS1,CS2,CS3,CS4,CS5,CS6,CS7,RSSI,Timestamp,Zero
,,1448,0,460,373,481,0.109375,0.968750,0.078125,-2.240000,-3.360000,-4.480000,0.588672,-0.037376,-0.102784,,0,0,0,0,0,,,,,,,,,-68,17:33:12.433,
,,1449,20,458,373,482,0.109375,0.968750,0.078125,-2.240000,-3.360000,-4.480000,0.588672,-0.037376,-0.102784,,0,0,0,0,0,,,,,,,,,-68,17:33:12.433,    
,,1450,40,458,373,482,0.109375,0.968750,0.078125,-2.240000,-3.360000,-4.480000,0.588672,-0.037376,-0.102784,,0,0,0,0,0,,,,,,,,,-68,17:33:12.463,
,,1451,60,459,373,481,0.089844,0.972656,0.078125,-2.240000,-3.360000,-4.480000,0.588672,-0.037376,-0.102784,,0,0,0,0,0,,,,,,,,,-68,17:33:12.493,
,,1452,80,459,373,481,0.089844,0.972656,0.078125,-2.240000,-3.360000,-4.480000,0.588672,-0.037376,-0.102784,,0,0,0,0,0,,,,,,,,,-68,17:33:12.494,
,,1453,100,460,371,482,0.089844,0.972656,0.078125,-2.240000,-3.360000,-4.480000,0.588672,-0.037376,-0.102784,,0,0,0,0,0,,,,,,,,,-68,17:33:12.528,
,,1454,120,459,372,481,0.089844,0.972656,0.078125,-2.240000,-3.360000,-4.480000,0.588672,-0.037376,-0.102784,,0,0,0,0,0,,,,,,,,,-68,17:33:12.553,
,,1455,140,458,373,482,0.101562,0.972656,0.082031,-2.240000,-3.360000,-3.360000,0.588672,-0.037376,-0.102784,,0,0,0,0,0,,,,,,,,,-68,17:33:12.553,
,,1456,160,459,372,483,0.101562,0.972656,0.082031,-2.240000,-3.360000,-3.360000,0.588672,-0.037376,-0.102784,,0,0,0,0,0,,,,,,,,,-68,17:33:12.583,
,,1457,180,459,374,482,0.101562,0.972656,0.082031,-2.240000,-3.360000,-3.360000,0.588672,-0.037376,-0.102784,,0,0,0,0,0,,,,,,,,,-68,17:33:12.614,
,,1458,200,458,373,482,0.101562,0.972656,0.082031,-2.240000,-3.360000,-3.360000,0.588672,-0.037376,-0.102784,,0,0,0,0,0,,,,,,,,,-68,17:33:12.615,
,,1459,220,459,374,483,0.085938,0.972656,0.066406,-2.240000,-3.360000,-3.360000,0.588672,-0.037376,-0.102784,,0,0,0,0,0,,,,,,,,,-68,17:33:12.642,
,,1460,240,458,373,482,0.085938,0.972656,0.066406,-2.240000,-3.360000,-3.360000,0.588672,-0.037376,-0.102784,,0,0,0,0,0,,,,,,,,,-68,17:33:12.677,
,,1461,260,460,373,482,0.085938,0.972656,0.066406,-2.240000,-3.360000,-3.360000,0.588672,-0.037376,-0.102784,,0,0,0,0,0,,,,,,,,,-68,17:33:12.678,
,,1462,280,459,372,482,0.082031,0.972656,0.066406,-1.120000,-3.360000,-3.360000,0.588672,-0.037376,-0.102784,,0,0,0,0,0,,,,,,,,,-68,17:33:12.702,
,,1463,300,458,373,482,0.082031,0.972656,0.066406,-1.120000,-3.360000,-3.360000,0.588672,-0.037376,-0.102784,,0,0,0,0,0,,,,,,,,,-68,17:33:12.733,
,,1464,320,459,374,481,0.082031,0.972656,0.066406,-1.120000,-3.360000,-3.360000,0.588672,-0.037376,-0.102784,,0,0,0,0,0,,,,,,,,,-68,17:33:12.733,
,,1465,340,459,373,484,0.082031,0.972656,0.066406,-1.120000,-3.360000,-3.360000,0.588672,-0.037376,-0.102784,,0,0,0,0,0,,,,,,,,,-68,17:33:12.763,
,,1466,360,459,373,481,0.074219,0.980469,0.066406,0.000000,-3.360000,-3.360000,0.588672,-0.037376,-0.102784,,0,0,0,0,0,,,,,,,,,-68,17:33:12.795,
,,1467,380,460,374,480,0.074219,0.980469,0.066406,0.000000,-3.360000,-3.360000,0.588672,-0.037376,-0.102784,,0,0,0,0,0,,,,,,,,,-68,17:33:12.795,
,,1468,400,459,373,482,0.074219,0.980469,0.066406,0.000000,-3.360000,-3.360000,0.588672,-0.037376,-0.102784,,0,0,0,0,0,,,,,,,,,-68,17:33:12.825,
,,1469,420,458,373,482,0.074219,0.980469,0.066406,0.000000,-3.360000,-3.360000,0.588672,-0.037376,-0.102784,,0,0,0,0,0,,,,,,,,,-68,17:33:12.853,
,,1470,440,458,374,482,0.132812,0.960938,0.085938,1.120000,-3.360000,-2.240000,0.588672,-0.037376,-0.102784,,0,0,0,0,0,,,,,,,,,-68,17:33:12.853,
,,1471,460,459,374,481,0.132812,0.960938,0.085938,1.120000,-3.360000,-2.240000,0.588672,-0.037376,-0.102784,,0,0,0,0,0,,,,,,,,,-68,17:33:12.882,
,,1472,480,460,375,482,0.132812,0.960938,0.085938,1.120000,-3.360000,-2.240000,0.588672,-0.037376,-0.102784,,0,0,0,0,0,,,,,,,,,-68,17:33:12.913,
,,1473,500,458,374,482,0.132812,0.960938,0.085938,1.120000,-3.360000,-2.240000,0.588672,-0.037376,-0.102784,,0,0,0,0,0,,,,,,,,,-68,17:33:12.913,
,,1474,520,459,374,480,0.164062,0.957031,0.089844,0.000000,-3.360000,-2.240000,0.588672,-0.037376,-0.102784,,0,0,0,0,0,,,,,,,,,-68,17:33:12.944,
,,1475,540,457,375,482,0.164062,0.957031,0.089844,0.000000,-3.360000,-2.240000,0.588672,-0.037376,-0.102784,,0,0,0,0,0,,,,,,,,,-68,17:33:12.979,
,,1476,560,458,374,482,0.164062,0.957031,0.089844,0.000000,-3.360000,-2.240000,0.588672,-0.037376,-0.102784,,0,0,0,0,0,,,,,,,,,-68,17:33:12.980,
,,1477,580,460,374,482,0.164062,0.957031,0.089844,0.000000,-3.360000,-2.240000,0.588672,-0.037376,-0.102784,,0,0,0,0,0,,,,,,,,,-68,17:33:13.002,
,,1478,600,460,375,482,0.117188,0.972656,0.066406,-1.120000,-3.360000,-4.480000,0.588672,-0.037376,-0.102784,,0,0,0,0,0,,,,,,,,,-68,17:33:13.033,
,,1479,620,460,373,482,0.117188,0.972656,0.066406,-1.120000,-3.360000,-4.480000,0.588672,-0.037376,-0.102784,,0,0,0,0,0,,,,,,,,,-68,17:33:13.033,
,,1480,640,459,375,481,0.117188,0.972656,0.066406,-1.120000,-3.360000,-4.480000,0.588672,-0.037376,-0.102784,,0,0,0,0,0,,,,,,,,,-68,17:33:13.063,
,,1481,660,458,375,481,0.117188,0.972656,0.066406,-1.120000,-3.360000,-4.480000,0.588672,-0.037376,-0.102784,,0,0,0,0,0,,,,,,,,,-68,17:33:13.094,
,,1482,680,459,373,481,0.093750,0.972656,0.062500,-2.240000,-3.360000,-3.360000,0.588672,-0.037376,-0.102784,,0,0,0,0,0,,,,,,,,,-68,17:33:13.094,
,,1483,700,459,373,483,0.093750,0.972656,0.062500,-2.240000,-3.360000,-3.360000,0.588672,-0.037376,-0.102784,,0,0,0,0,0,,,,,,,,,-68,17:33:13.137,
,,1484,720,459,375,482,0.093750,0.972656,0.062500,-2.240000,-3.360000,-3.360000,0.588672,-0.037376,-0.102784,,0,0,0,0,0,,,,,,,,,-68,17:33:13.152,
,,1485,740,458,375,481,0.050781,0.976562,0.046875,-1.120000,-3.360000,-3.360000,0.588672,-0.037376,-0.102784,,0,0,0,0,0,,,,,,,,,-68,17:33:13.153,
,,1486,760,458,375,481,0.050781,0.976562,0.046875,-1.120000,-3.360000,-3.360000,0.588672,-0.037376,-0.102784,,0,0,0,0,0,,,,,,,,,-68,17:33:13.182,
,,1487,780,459,373,482,0.050781,0.976562,0.046875,-1.120000,-3.360000,-3.360000,0.588672,-0.037376,-0.102784,,0,0,0,0,0,,,,,,,,,-68,17:33:13.214,
,,1488,800,458,373,481,0.050781,0.976562,0.046875,-1.120000,-3.360000,-3.360000,0.588672,-0.037376,-0.102784,,0,0,0,0,0,,,,,,,,,-68,17:33:13.215,
,,1489,820,458,372,481,0.097656,0.976562,0.039062,0.000000,-3.360000,-2.240000,0.588672,-0.037376,-0.102784,,0,0,0,0,0,,,,,,,,,-69,17:33:13.280,
,,1490,840,458,373,481,0.097656,0.976562,0.039062,0.000000,-3.360000,-2.240000,0.588672,-0.037376,-0.102784,,0,0,0,0,0,,,,,,,,,-69,17:33:13.281,
,,1491,860,458,373,481,0.097656,0.976562,0.039062,0.000000,-3.360000,-2.240000,0.588672,-0.037376,-0.102784,,0,0,0,0,0,,,,,,,,,-69,17:33:13.303,
,,1492,880,457,373,481,0.121094,0.968750,0.062500,-1.120000,-3.360000,-3.360000,0.588672,-0.037376,-0.102784,,0,0,0,0,0,,,,,,,,,-69,17:33:13.333,
,,1493,900,458,373,481,0.121094,0.968750,0.062500,-1.120000,-3.360000,-3.360000,0.588672,-0.037376,-0.102784,,0,0,0,0,0,,,,,,,,,-69,17:33:13.333,
,,1494,920,458,372,480,0.121094,0.968750,0.062500,-1.120000,-3.360000,-3.360000,0.588672,-0.037376,-0.102784,,0,0,0,0,0,,,,,,,,,-69,17:33:13.363,
,,1495,940,459,370,482,0.121094,0.968750,0.062500,-1.120000,-3.360000,-3.360000,0.588672,-0.037376,-0.102784,,0,0,0,0,0,,,,,,,,,-69,17:33:13.397,
,,1496,960,458,370,481,0.101562,0.968750,0.074219,-2.240000,-2.240000,-4.480000,0.588672,-0.037376,-0.102784,,0,0,0,0,0,,,,,,,,,-69,17:33:13.397,
,,1497,980,458,370,480,0.101562,0.968750,0.074219,-2.240000,-2.240000,-4.480000,0.588672,-0.037376,-0.102784,,0,0,0,0,0,,,,,,,,,-69,17:33:13.427,
,,1498,1000,458,371,481,0.101562,0.968750,0.074219,-2.240000,-2.240000,-4.480000,0.588672,-0.037376,-0.102784,,0,0,0,0,0,,,,,,,,,-69,17:33:13.453,
,,1499,1020,459,371,479,0.101562,0.968750,0.074219,-2.240000,-2.240000,-3.360000,0.588672,-0.037376,-0.102784,,0,0,0,0,0,,,,,,,,,-69,17:33:13.453,
,,1500,1040,458,372,480,0.097656,0.972656,0.054688,-1.120000,-3.360000,-3.360000,0.588672,-0.037376,-0.102784,,0,0,0,0,0,,,,,,,,,-69,17:33:13.482,
,,1501,1060,457,373,481,0.097656,0.972656,0.054688,-1.120000,-3.360000,-3.360000,0.588672,-0.037376,-0.102784,,0,0,0,0,0,,,,,,,,,-69,17:33:13.515,
,,1502,1080,459,371,479,0.097656,0.972656,0.054688,-1.120000,-3.360000,-3.360000,0.588672,-0.037376,-0.102784,,0,0,0,0,0,,,,,,,,,-69,17:33:13.515,
,,1503,1100,458,373,480,0.085938,0.972656,0.054688,-1.120000,-2.240000,-3.360000,0.588672,-0.037376,-0.102784,,0,0,0,0,0,,,,,,,,,-69,17:33:13.544,
,,1504,1120,458,373,480,0.085938,0.972656,0.054688,-1.120000,-2.240000,-3.360000,0.588672,-0.037376,-0.102784,,0,0,0,0,0,,,,,,,,,-69,17:33:13.579,
,,1505,1140,459,372,480,0.085938,0.972656,0.054688,-1.120000,-2.240000,-3.360000,0.588672,-0.037376,-0.102784,,0,0,0,0,0,,,,,,,,,-69,17:33:13.579,
,,1506,1160,459,374,480,0.085938,0.972656,0.054688,-1.120000,-2.240000,-3.360000,0.588672,-0.037376,-0.102784,,0,0,0,0,0,,,,,,,,,-69,17:33:13.602,
,,1507,1180,460,373,480,0.085938,0.972656,0.066406,0.000000,-2.240000,-3.360000,0.588672,-0.037376,-0.102784,,0,0,0,0,0,,,,,,,,,-69,17:33:13.633,
,,1508,1200,458,375,479,0.085938,0.972656,0.066406,0.000000,-2.240000,-3.360000,0.588672,-0.037376,-0.102784,,0,0,0,0,0,,,,,,,,,-69,17:33:13.633,
,,1509,1220,460,375,479,0.085938,0.972656,0.066406,0.000000,-2.240000,-3.360000,0.588672,-0.037376,-0.102784,,0,0,0,0,0,,,,,,,,,-69,17:33:13.663,
,,1510,1240,460,376,479,0.085938,0.972656,0.066406,0.000000,-2.240000,-3.360000,0.588672,-0.037376,-0.102784,,0,0,0,0,0,,,,,,,,,-69,17:33:13.697,
,,1511,1260,461,376,478,0.117188,0.972656,0.054688,2.240000,-2.240000,-2.240000,0.588672,-0.037376,-0.102784,,0,0,0,0,0,,,,,,,,,-69,17:33:13.697,
,,1512,1280,462,378,480,0.117188,0.972656,0.054688,2.240000,-2.240000,-2.240000,0.588672,-0.037376,-0.102784,,0,0,0,0,0,,,,,,,,,-69,17:33:13.729,
,,1513,1300,461,378,479,0.117188,0.972656,0.054688,2.240000,-2.240000,-2.240000,0.588672,-0.037376,-0.102784,,0,0,0,0,0,,,,,,,,,-69,17:33:13.753,
,,1514,1320,460,378,478,0.117188,0.972656,0.054688,2.240000,-2.240000,-2.240000,0.588672,-0.037376,-0.102784,,0,0,0,0,0,,,,,,,,,-69,17:33:13.753,
,,1515,1340,461,377,480,0.175781,0.957031,0.082031,1.120000,-2.240000,-2.240000,0.588672,-0.037376,-0.102784,,0,0,0,0,0,,,,,,,,,-69,17:33:13.783,
,,1516,1360,461,375,476,0.175781,0.957031,0.082031,1.120000,-2.240000,-2.240000,0.588672,-0.037376,-0.102784,,0,0,0,0,0,,,,,,,,,-69,17:33:13.814,
,,1517,1380,461,375,477,0.175781,0.957031,0.082031,1.120000,-2.240000,-2.240000,0.588672,-0.037376,-0.102784,,0,0,0,0,0,,,,,,,,,-69,17:33:13.815,
,,1518,1400,463,376,476,0.175781,0.957031,0.082031,1.120000,-2.240000,-2.240000,0.588672,-0.037376,-0.102784,,0,0,0,0,0,,,,,,,,,-69,17:33:13.844,
,,1519,1420,460,374,476,0.121094,0.976562,0.019531,0.000000,-2.240000,-2.240000,0.588672,-0.037376,-0.102784,,0,0,0,0,0,,,,,,,,,-69,17:33:13.873,
,,1520,1440,461,373,474,0.121094,0.976562,0.019531,0.000000,-2.240000,-2.240000,0.588672,-0.037376,-0.102784,,0,0,0,0,0,,,,,,,,,-69,17:33:13.873,
,,1521,1460,459,373,474,0.121094,0.976562,0.019531,0.000000,-2.240000,-2.240000,0.588672,-0.037376,-0.102784,,0,0,0,0,0,,,,,,,,,-69,17:33:13.902,
,,1522,1480,461,371,473,0.101562,0.972656,0.058594,-2.240000,-2.240000,-3.360000,0.588672,-0.037376,-0.102784,,0,0,0,0,0,,,,,,,,,-69,17:33:13.933,
,,1523,1500,460,372,472,0.101562,0.972656,0.058594,-2.240000,-2.240000,-3.360000,0.588672,-0.037376,-0.102784,,0,0,0,0,0,,,,,,,,,-69,17:33:13.933,
,,1524,1520,460,372,471,0.101562,0.972656,0.058594,-2.240000,-2.240000,-3.360000,0.588672,-0.037376,-0.102784,,0,0,0,0,0,,,,,,,,,-69,17:33:13.963,
,,1525,1540,461,372,471,0.101562,0.972656,0.058594,-2.240000,-2.240000,-3.360000,0.588672,-0.037376,-0.102784,,0,0,0,0,0,,,,,,,,,-69,17:33:13.999,
,,1526,1560,461,372,470,0.070312,0.976562,0.050781,-2.240000,-2.240000,-3.360000,0.588672,-0.037376,-0.102784,,0,0,0,0,0,,,,,,,,,-69,17:33:13.999,
,,1527,1580,460,371,470,0.070312,0.976562,0.050781,-2.240000,-2.240000,-3.360000,0.588672,-0.037376,-0.102784,,0,0,0,0,0,,,,,,,,,-69,17:33:14.022,
,,1528,1600,460,370,472,0.070312,0.976562,0.050781,-2.240000,-2.240000,-3.360000,0.588672,-0.037376,-0.102784,,0,0,0,0,0,,,,,,,,,-69,17:33:14.055,
,,1529,1620,459,370,470,0.070312,0.976562,0.050781,-2.240000,-2.240000,-3.360000,0.588672,-0.037376,-0.102784,,0,0,0,0,0,,,,,,,,,-69,17:33:14.055,
,,1530,1640,459,368,469,0.125000,0.968750,0.050781,1.120000,-3.360000,-1.120000,0.588672,-0.037376,-0.102784,,0,0,0,0,0,,,,,,,,,-69,17:33:14.081,
,,1531,1660,460,369,468,0.125000,0.968750,0.050781,1.120000,-3.360000,-1.120000,0.588672,-0.037376,-0.102784,,0,0,0,0,0,,,,,,,,,-69,17:33:14.114,
,,1532,1680,459,367,468,0.125000,0.968750,0.050781,1.120000,-3.360000,-1.120000,0.588672,-0.037376,-0.102784,,0,0,0,0,0,,,,,,,,,-69,17:33:14.115,
,,1533,1700,459,366,468,0.125000,0.968750,0.050781,1.120000,-3.360000,-1.120000,0.588672,-0.037376,-0.102784,,0,0,0,0,0,,,,,,,,,-69,17:33:14.145,
,,1534,1720,460,365,467,0.128906,0.964844,0.066406,1.120000,-3.360000,0.000000,0.588672,-0.037376,-0.102784,,0,0,0,0,0,,,,,,,,,-69,17:33:14.173,
,,1535,1740,457,364,468,0.128906,0.964844,0.066406,1.120000,-3.360000,0.000000,0.588672,-0.037376,-0.102784,,0,0,0,0,0,,,,,,,,,-69,17:33:14.173,
,,1536,1760,457,360,467,0.128906,0.964844,0.066406,1.120000,-3.360000,0.000000,0.588672,-0.037376,-0.102784,,0,0,0,0,0,,,,,,,,,-69,17:33:14.203,
,,1537,1780,457,355,466,0.128906,0.964844,0.066406,1.120000,-3.360000,0.000000,0.588672,-0.037376,-0.102784,,0,0,0,0,0,,,,,,,,,-69,17:33:14.233,
,,1538,1800,452,347,461,0.187500,0.964844,0.007812,2.240000,-4.480000,1.120000,0.588672,-0.037376,-0.102784,,0,0,0,0,0,,,,,,,,,-69,17:33:14.264,
,,1539,1820,453,344,462,0.187500,0.964844,0.007812,2.240000,-4.480000,1.120000,0.588672,-0.037376,-0.102784,,0,0,0,0,0,,,,,,,,,-69,17:33:14.298,
,,1540,1840,449,338,464,0.109375,0.949219,0.253906,-1.120000,-3.360000,1.120000,0.588672,-0.037376,-0.102784,,0,0,0,0,0,,,,,,,,,-69,17:33:14.299,
,,1541,1860,449,333,466,0.109375,0.949219,0.253906,-1.120000,-3.360000,1.120000,0.588672,-0.037376,-0.102784,,0,0,0,0,0,,,,,,,,,-69,17:33:14.322,
,,1542,1880,448,327,474,0.109375,0.949219,0.253906,-1.120000,-3.360000,1.120000,0.588672,-0.037376,-0.102784,,0,0,0,0,0,,,,,,,,,-69,17:33:14.354,
,,1543,1900,445,325,479,0.109375,0.949219,0.253906,-1.120000,-3.360000,1.120000,0.588672,-0.037376,-0.102784,,0,0,0,0,0,,,,,,,,,-69,17:33:14.354,
,,1544,1920,445,320,484,0.167969,0.984375,-0.156250,4.480000,-13.440001,11.200000,0.588672,-0.037376,-0.102784,,0,0,0,0,0,,,,,,,,,-69,17:33:14.382,
,,1545,1940,443,321,486,0.167969,0.984375,-0.156250,4.480000,-13.440001,11.200000,0.588672,-0.037376,-0.102784,,0,0,0,0,0,,,,,,,,,-69,17:33:14.414,
,,1546,1960,443,320,488,0.167969,0.984375,-0.156250,4.480000,-13.440001,11.200000,0.588672,-0.037376,-0.102784,,0,0,0,0,0,,,,,,,,,-69,17:33:14.415,
,,1547,1980,442,321,487,0.167969,0.984375,-0.156250,4.480000,-13.440001,11.200000,0.588672,-0.037376,-0.102784,,0,0,0,0,0,,,,,,,,,-69,17:33:14.445,
,,1548,2000,442,321,490,0.074219,0.988281,-0.078125,-1.120000,-10.080000,0.000000,0.588672,-0.037376,-0.102784,,0,0,0,0,0,,,,,,,,,-69,17:33:14.473,
,,1549,2020,441,323,489,0.074219,0.988281,-0.078125,-1.120000,-10.080000,0.000000,0.588672,-0.037376,-0.102784,,0,0,0,0,0,,,,,,,,,-69,17:33:14.473,
,,1550,2040,440,324,490,0.074219,0.988281,-0.078125,-1.120000,-10.080000,0.000000,0.588672,-0.037376,-0.102784,,0,0,0,0,0,,,,,,,,,-69,17:33:14.503,
,,1551,2060,438,324,491,0.074219,0.988281,-0.078125,-1.120000,-10.080000,0.000000,0.588672,-0.037376,-0.102784,,0,0,0,0,0,,,,,,,,,-69,17:33:14.533,
,,1552,2080,436,326,489,0.109375,0.976562,-0.046875,-4.480000,-7.840000,-6.720000,0.588672,-0.037376,-0.102784,,0,0,0,0,0,,,,,,,,,-69,17:33:14.533,
,,1553,2100,438,328,490,0.109375,0.976562,-0.046875,-4.480000,-7.840000,-6.720000,0.588672,-0.037376,-0.102784,,0,0,0,0,0,,,,,,,,,-69,17:33:14.564,
,,1554,2120,434,330,490,0.109375,0.976562,-0.046875,-4.480000,-7.840000,-6.720000,0.588672,-0.037376,-0.102784,,0,0,0,0,0,,,,,,,,,-69,17:33:14.599,
,,1555,2140,434,333,488,0.109375,0.976562,-0.046875,-4.480000,-7.840000,-6.720000,0.588672,-0.037376,-0.102784,,0,0,0,0,0,,,,,,,,,-69,17:33:14.599,
,,1556,2160,431,336,485,0.160156,0.960938,-0.007812,-10.080000,-4.480000,-10.080000,0.588672,-0.037376,-0.102784,,0,0,0,0,0,,,,,,,,,-69,17:33:14.622,
,,1557,2180,428,344,483,0.160156,0.960938,-0.007812,-10.080000,-4.480000,-10.080000,0.598016,-0.046720,-0.112128,,0,0,0,0,0,,,,,,,,,-69,17:33:14.654,
,,1558,2200,429,348,479,0.160156,0.960938,-0.007812,-10.080000,-4.480000,-10.080000,0.598016,-0.046720,-0.112128,,0,0,0,0,0,,,,,,,,,-69,17:33:14.655,
,,1559,2220,429,353,478,0.160156,0.960938,-0.007812,-10.080000,-4.480000,-10.080000,0.598016,-0.046720,-0.112128,,0,0,0,0,0,,,,,,,,,-69,17:33:14.682,
,,1560,2240,428,357,474,0.222656,0.960938,0.089844,-11.200000,1.120000,-14.560000,0.598016,-0.046720,-0.112128,,0,0,0,0,0,,,,,,,,,-69,17:33:14.715,
,,1561,2260,429,361,472,0.222656,0.960938,0.089844,-11.200000,1.120000,-14.560000,0.598016,-0.046720,-0.112128,,0,0,0,0,0,,,,,,,,,-69,17:33:14.716,
,,1562,2280,429,361,469,0.222656,0.960938,0.089844,-11.200000,1.120000,-14.560000,0.598016,-0.046720,-0.112128,,0,0,0,0,0,,,,,,,,,-69,17:33:14.746,
,,1563,2300,428,361,468,0.171875,0.941406,0.167969,-10.080000,5.600000,-13.440001,0.598016,-0.046720,-0.112128,,0,0,0,0,0,,,,,,,,,-69,17:33:14.773,
,,1564,2320,428,361,466,0.171875,0.941406,0.167969,-10.080000,5.600000,-13.440001,0.598016,-0.046720,-0.112128,,0,0,0,0,0,,,,,,,,,-69,17:33:14.773,
,,1565,2340,430,360,463,0.171875,0.941406,0.167969,-10.080000,5.600000,-13.440001,0.598016,-0.046720,-0.112128,,0,0,0,0,0,,,,,,,,,-69,17:33:14.802,
,,1566,2360,429,358,462,0.171875,0.941406,0.167969,-10.080000,5.600000,-13.440001,0.598016,-0.046720,-0.112128,,0,0,0,0,0,,,,,,,,,-69,17:33:14.833,
,,1567,2380,429,357,461,0.140625,0.957031,0.148438,-6.720000,1.120000,-7.840000,0.598016,-0.046720,-0.112128,,0,0,0,0,0,,,,,,,,,-69,17:33:14.833,
,,1568,2400,429,354,460,0.140625,0.957031,0.148438,-6.720000,1.120000,-7.840000,0.598016,-0.046720,-0.112128,,0,0,0,0,0,,,,,,,,,-69,17:33:14.864,
,,1569,2420,428,353,461,0.140625,0.957031,0.148438,-6.720000,1.120000,-7.840000,0.598016,-0.046720,-0.112128,,0,0,0,0,0,,,,,,,,,-69,17:33:14.900,
,,1570,2440,427,348,460,0.140625,0.957031,0.148438,-6.720000,1.120000,-7.840000,0.598016,-0.046720,-0.112128,,0,0,0,0,0,,,,,,,,,-69,17:33:14.901,
,,1571,2460,428,346,461,0.031250,0.996094,0.054688,-5.600000,-2.240000,0.000000,0.598016,-0.046720,-0.112128,,0,0,0,0,0,,,,,,,,,-69,17:33:14.922,
,,1572,2480,428,343,464,0.031250,0.996094,0.054688,-5.600000,-2.240000,0.000000,0.598016,-0.046720,-0.112128,,0,0,0,0,0,,,,,,,,,-69,17:33:14.954,
,,1573,2500,427,342,466,0.031250,0.996094,0.054688,-5.600000,-2.240000,0.000000,0.598016,-0.046720,-0.112128,,0,0,0,0,0,,,,,,,,,-69,17:33:14.955,
,,1574,2520,427,339,467,0.031250,0.996094,0.054688,-5.600000,-2.240000,0.000000,0.598016,-0.046720,-0.112128,,0,0,0,0,0,,,,,,,,,-69,17:33:14.982,
,,1575,2540,428,337,471,0.054688,0.949219,0.214844,-6.720000,-3.360000,10.080000,0.598016,-0.046720,-0.112128,,0,0,0,0,0,,,,,,,,,-69,17:33:15.016,
,,1576,2560,427,334,480,0.054688,0.949219,0.214844,-6.720000,-3.360000,10.080000,0.598016,-0.046720,-0.112128,,0,0,0,0,0,,,,,,,,,-69,17:33:15.017,
,,1577,2580,427,334,486,0.054688,0.949219,0.214844,-6.720000,-3.360000,10.080000,0.598016,-0.046720,-0.112128,,0,0,0,0,0,,,,,,,,,-69,17:33:15.047,
,,1578,2600,428,332,489,0.054688,0.949219,0.214844,-6.720000,-3.360000,10.080000,0.598016,-0.046720,-0.112128,,0,0,0,0,0,,,,,,,,,-69,17:33:15.072,
,,1579,2620,429,333,488,0.132812,1.015625,-0.242188,-1.120000,-7.840000,20.160000,0.598016,-0.046720,-0.112128,,0,0,0,0,0,,,,,,,,,-69,17:33:15.072,
,,1580,2640,430,333,487,0.132812,1.015625,-0.242188,-1.120000,-7.840000,20.160000,0.598016,-0.046720,-0.112128,,0,0,0,0,0,,,,,,,,,-69,17:33:15.102,
,,1581,2660,429,336,487,0.132812,1.015625,-0.242188,-1.120000,-7.840000,20.160000,0.598016,-0.046720,-0.112128,,0,0,0,0,0,,,,,,,,,-69,17:33:15.135,
,,1582,2680,431,338,488,0.132812,1.015625,-0.242188,-1.120000,-7.840000,20.160000,0.598016,-0.046720,-0.112128,,0,0,0,0,0,,,,,,,,,-69,17:33:15.136,
,,1583,2700,434,338,490,0.347656,0.910156,0.199219,5.600000,-4.480000,-2.240000,0.598016,-0.046720,-0.112128,,0,0,0,0,0,,,,,,,,,-69,17:33:15.164,
,,1584,2720,435,339,493,0.347656,0.910156,0.199219,5.600000,-4.480000,-2.240000,0.598016,-0.046720,-0.112128,,0,0,0,0,0,,,,,,,,,-69,17:33:15.199,
,,1585,2740,436,338,494,0.347656,0.910156,0.199219,5.600000,-4.480000,-2.240000,0.598016,-0.046720,-0.112128,,0,0,0,0,0,,,,,,,,,-69,17:33:15.200,
,,1586,2760,436,339,494,0.207031,0.945312,0.089844,2.240000,-6.720000,-12.320000,0.598016,-0.046720,-0.112128,,0,0,0,0,0,,,,,,,,,-69,17:33:15.222,
,,1587,2780,438,346,498,0.207031,0.945312,0.089844,2.240000,-6.720000,-12.320000,0.598016,-0.046720,-0.112128,,0,0,0,0,0,,,,,,,,,-69,17:33:15.254,
,,1588,2800,439,351,498,0.207031,0.945312,0.089844,2.240000,-6.720000,-12.320000,0.598016,-0.046720,-0.112128,,0,0,0,0,0,,,,,,,,,-69,17:33:15.283,
,,1589,2820,439,352,497,0.089844,0.964844,0.074219,1.120000,-4.480000,-15.680000,0.598016,-0.046720,-0.112128,,0,0,0,0,0,,,,,,,,,-69,17:33:15.316,
,,1590,2840,440,352,497,0.089844,0.964844,0.074219,1.120000,-4.480000,-15.680000,0.598016,-0.046720,-0.112128,,0,0,0,0,0,,,,,,,,,-69,17:33:15.317,
,,1591,2860,439,351,497,0.089844,0.964844,0.074219,1.120000,-4.480000,-15.680000,0.598016,-0.046720,-0.112128,,0,0,0,0,0,,,,,,,,,-69,17:33:15.347,
,,1592,2880,439,351,494,0.089844,0.964844,0.074219,1.120000,-4.480000,-15.680000,0.598016,-0.046720,-0.112128,,0,0,0,0,0,,,,,,,,,-69,17:33:15.373,
,,1593,2900,438,350,493,0.109375,0.960938,0.109375,4.480000,-2.240000,-8.960000,0.598016,-0.046720,-0.112128,,0,0,0,0,0,,,,,,,,,-69,17:33:15.373,
,,1594,2920,439,347,492,0.109375,0.960938,0.109375,4.480000,-2.240000,-8.960000,0.598016,-0.046720,-0.112128,,0,0,0,0,0,,,,,,,,,-69,17:33:15.402,
,,1595,2940,437,344,493,0.109375,0.960938,0.109375,4.480000,-2.240000,-8.960000,0.598016,-0.046720,-0.112128,,0,0,0,0,0,,,,,,,,,-69,17:33:15.435,
,,1596,2960,438,343,491,0.109375,0.960938,0.109375,4.480000,-2.240000,-8.960000,0.598016,-0.046720,-0.112128,,0,0,0,0,0,,,,,,,,,-69,17:33:15.435,
,,1597,2980,436,340,491,0.136719,0.976562,-0.031250,4.480000,-4.480000,1.120000,0.598016,-0.046720,-0.112128,,0,0,0,0,0,,,,,,,,,-69,17:33:15.464,
,,1598,3000,436,339,491,0.136719,0.976562,-0.031250,4.480000,-4.480000,1.120000,0.598016,-0.046720,-0.112128,,0,0,0,0,0,,,,,,,,,-69,17:33:15.493,
,,1599,3020,437,339,490,0.136719,0.976562,-0.031250,4.480000,-4.480000,1.120000,0.598016,-0.046720,-0.112128,,0,0,0,0,0,,,,,,,,,-69,17:33:15.493,
,,1600,3040,436,338,489,0.148438,0.980469,-0.050781,-3.360000,-2.240000,-2.240000,0.598016,-0.046720,-0.112128,,0,0,0,0,0,,,,,,,,,-69,17:33:15.523,
,,1601,3060,435,336,489,0.148438,0.980469,-0.050781,-3.360000,-2.240000,-2.240000,0.598016,-0.046720,-0.112128,,0,0,0,0,0,,,,,,,,,-69,17:33:15.554,
,,1602,3080,435,336,489,0.148438,0.980469,-0.050781,-3.360000,-2.240000,-2.240000,0.598016,-0.046720,-0.112128,,0,0,0,0,0,,,,,,,,,-69,17:33:15.555,
,,1603,3100,435,337,487,0.148438,0.980469,-0.050781,-3.360000,-2.240000,-2.240000,0.598016,-0.046720,-0.112128,,0,0,0,0,0,,,,,,,,,-69,17:33:15.582,
,,1604,3120,437,336,488,0.160156,0.964844,0.074219,-11.200000,-2.240000,-10.080000,0.598016,-0.046720,-0.112128,,0,0,0,0,0,,,,,,,,,-69,17:33:15.618,
,,1605,3140,434,337,488,0.160156,0.964844,0.074219,-11.200000,-2.240000,-10.080000,0.598016,-0.046720,-0.112128,,0,0,0,0,0,,,,,,,,,-69,17:33:15.618,
,,1606,3160,436,337,487,0.160156,0.964844,0.074219,-11.200000,-2.240000,-10.080000,0.598016,-0.046720,-0.112128,,0,0,0,0,0,,,,,,,,,-69,17:33:15.642,
,,1607,3180,434,337,486,0.160156,0.964844,0.074219,-11.200000,-2.240000,-10.080000,0.598016,-0.046720,-0.112128,,0,0,0,0,0,,,,,,,,,-69,17:33:15.676,
,,1608,3200,435,339,487,0.117188,0.972656,0.054688,-12.320000,-1.120000,-11.200000,0.598016,-0.046720,-0.112128,,0,0,0,0,0,,,,,,,,,-69,17:33:15.676,
,,1609,3220,437,343,489,0.117188,0.972656,0.054688,-12.320000,-1.120000,-11.200000,0.598016,-0.046720,-0.112128,,0,0,0,0,0,,,,,,,,,-69,17:33:15.703,
,,1610,3240,438,347,489,0.117188,0.972656,0.054688,-12.320000,-1.120000,-11.200000,0.598016,-0.046720,-0.112128,,0,0,0,0,0,,,,,,,,,-69,17:33:15.734,
,,1611,3260,440,354,490,0.117188,0.972656,0.054688,-12.320000,-1.120000,-11.200000,0.598016,-0.046720,-0.112128,,0,0,0,0,0,,,,,,,,,-69,17:33:15.735,
,,1612,3280,443,362,494,0.093750,0.976562,0.062500,-11.200000,1.120000,-12.320000,0.598016,-0.046720,-0.112128,,0,0,0,0,0,,,,,,,,,-69,17:33:15.765,
,,1613,3300,448,372,494,0.093750,0.976562,0.062500,-11.200000,1.120000,-12.320000,0.598016,-0.046720,-0.112128,,0,0,0,0,0,,,,,,,,,-69,17:33:15.793,
,,1614,3320,450,381,498,0.093750,0.976562,0.062500,-11.200000,1.120000,-12.320000,0.598016,-0.046720,-0.112128,,0,0,0,0,0,,,,,,,,,-69,17:33:15.793,
,,1615,3340,453,389,496,0.093750,0.976562,0.062500,-11.200000,1.120000,-12.320000,0.598016,-0.046720,-0.112128,,0,0,0,0,0,,,,,,,,,-69,17:33:15.823,
,,1616,3360,455,397,498,0.046875,0.984375,0.074219,-10.080000,2.240000,-13.440001,0.598016,-0.046720,-0.112128,,0,0,0,0,0,,,,,,,,,-69,17:33:15.853,
,,1617,3380,459,403,499,0.046875,0.984375,0.074219,-10.080000,2.240000,-13.440001,0.598016,-0.046720,-0.112128,,0,0,0,0,0,,,,,,,,,-69,17:33:15.853,
,,1618,3400,461,407,501,0.046875,0.984375,0.074219,-10.080000,2.240000,-13.440001,0.598016,-0.046720,-0.112128,,0,0,0,0,0,,,,,,,,,-69,17:33:15.885,
,,1619,3420,464,410,504,0.046875,0.984375,0.074219,-10.080000,2.240000,-13.440001,0.598016,-0.046720,-0.112128,,0,0,0,0,0,,,,,,,,,-69,17:33:15.917,
,,1620,3440,464,411,505,0.062500,0.960938,0.156250,-6.720000,1.120000,-11.200000,0.598016,-0.046720,-0.112128,,0,0,0,0,0,,,,,,,,,-69,17:33:15.917,
,,1621,3460,464,413,506,0.062500,0.960938,0.156250,-6.720000,1.120000,-11.200000,0.598016,-0.046720,-0.112128,,0,0,0,0,0,,,,,,,,,-69,17:33:15.943,
,,1622,3480,465,417,510,0.062500,0.960938,0.156250,-6.720000,1.120000,-11.200000,0.598016,-0.046720,-0.112128,,0,0,0,0,0,,,,,,,,,-69,17:33:15.973,
,,1623,3500,465,417,508,0.097656,0.945312,0.132812,-1.120000,-3.360000,-4.480000,0.598016,-0.046720,-0.112128,,0,0,0,0,0,,,,,,,,,-69,17:33:15.973,
,,1624,3520,464,418,509,0.097656,0.945312,0.132812,-1.120000,-3.360000,-4.480000,0.598016,-0.046720,-0.112128,,0,0,0,0,0,,,,,,,,,-69,17:33:16.002,
,,1625,3540,463,418,509,0.097656,0.945312,0.132812,-1.120000,-3.360000,-4.480000,0.598016,-0.046720,-0.112128,,0,0,0,0,0,,,,,,,,,-69,17:33:16.033,
,,1626,3560,464,418,508,0.097656,0.945312,0.132812,-1.120000,-3.360000,-4.480000,0.598016,-0.046720,-0.112128,,0,0,0,0,0,,,,,,,,,-69,17:33:16.033,
,,1627,3580,463,418,507,0.003906,0.976562,-0.011719,2.240000,-5.600000,-4.480000,0.598016,-0.046720,-0.112128,,0,0,0,0,0,,,,,,,,,-69,17:33:16.066,
,,1628,3600,464,417,509,0.003906,0.976562,-0.011719,2.240000,-5.600000,-4.480000,0.598016,-0.046720,-0.112128,,0,0,0,0,0,,,,,,,,,-69,17:33:16.093,
,,1629,3620,462,418,508,0.003906,0.976562,-0.011719,2.240000,-5.600000,-4.480000,0.598016,-0.046720,-0.112128,,0,0,0,0,0,,,,,,,,,-69,17:33:16.093,
,,1630,3640,462,420,508,0.003906,0.976562,-0.011719,2.240000,-5.600000,-4.480000,0.598016,-0.046720,-0.112128,,0,0,0,0,0,,,,,,,,,-69,17:33:16.122,
,,1631,3660,460,422,507,-0.062500,1.039062,0.070312,-1.120000,-3.360000,-6.720000,0.598016,-0.046720,-0.112128,,0,0,0,0,0,,,,,,,,,-69,17:33:16.153,
,,1632,3680,458,425,511,-0.062500,1.039062,0.070312,-1.120000,-3.360000,-6.720000,0.598016,-0.046720,-0.112128,,0,0,0,0,0,,,,,,,,,-69,17:33:16.154,
,,1633,3700,455,427,518,-0.062500,1.039062,0.070312,-1.120000,-3.360000,-6.720000,0.598016,-0.046720,-0.112128,,0,0,0,0,0,,,,,,,,,-69,17:33:16.184,
,,1634,3720,455,436,524,-0.062500,1.039062,0.070312,-1.120000,-3.360000,-6.720000,0.598016,-0.046720,-0.112128,,0,0,0,0,0,,,,,,,,,-69,17:33:16.216,
,,1635,3740,456,458,528,0.218750,1.671875,0.000000,-4.480000,-1.120000,12.320000,0.598016,-0.046720,-0.112128,,0,0,0,0,0,,,,,,,,,-69,17:33:16.217,
,,1636,3760,466,508,533,0.218750,1.671875,0.000000,-4.480000,-1.120000,12.320000,0.682112,-0.093440,-0.140160,,0,0,0,0,0,,,,,,,,,-71,17:33:16.273,
,,1637,3780,467,518,534,0.218750,1.671875,0.000000,-4.480000,-1.120000,12.320000,0.682112,-0.093440,-0.140160,,0,0,0,0,0,,,,,,,,,-71,17:33:16.273,
,,1638,3800,468,526,535,0.687500,1.500000,0.300781,-43.680000,15.680000,85.120003,0.682112,-0.093440,-0.140160,,0,0,0,0,0,,,,,,,,,-71,17:33:16.302,
,,1639,3820,470,533,533,0.687500,1.500000,0.300781,-43.680000,15.680000,85.120003,0.682112,-0.093440,-0.140160,,0,0,0,0,0,,,,,,,,,-71,17:33:16.333,
,,1640,3840,473,537,535,0.687500,1.500000,0.300781,-43.680000,15.680000,85.120003,0.682112,-0.093440,-0.140160,,0,0,0,0,0,,,,,,,,,-71,17:33:16.334,
,,1641,3860,475,540,533,0.531250,1.257812,0.074219,-57.119999,10.080000,75.040001,0.682112,-0.093440,-0.140160,,0,0,0,0,0,,,,,,,,,-71,17:33:16.367,
,,1642,3880,478,541,533,0.531250,1.257812,0.074219,-57.119999,10.080000,75.040001,0.682112,-0.093440,-0.140160,,0,0,0,0,0,,,,,,,,,-71,17:33:16.393,
,,1643,3900,480,541,531,0.531250,1.257812,0.074219,-57.119999,10.080000,75.040001,0.682112,-0.093440,-0.140160,,0,0,0,0,0,,,,,,,,,-71,17:33:16.393,
,,1644,3920,482,541,531,0.531250,1.257812,0.074219,-57.119999,10.080000,75.040001,0.682112,-0.093440,-0.140160,,0,0,0,0,0,,,,,,,,,-71,17:33:16.423,
,,1645,3940,484,544,530,0.062500,0.710938,0.425781,-43.680000,42.560001,50.400002,0.682112,-0.093440,-0.140160,,0,0,0,0,0,,,,,,,,,-71,17:33:16.453,
,,1646,3960,486,543,529,0.062500,0.710938,0.425781,-43.680000,42.560001,50.400002,0.682112,-0.093440,-0.140160,,0,0,0,0,0,,,,,,,,,-71,17:33:16.453,
,,1647,3980,489,544,529,0.062500,0.710938,0.425781,-43.680000,42.560001,50.400002,0.682112,-0.093440,-0.140160,,0,0,0,0,0,,,,,,,,,-71,17:33:16.484,
,,1648,4000,490,545,528,0.062500,0.710938,0.425781,-43.680000,42.560001,50.400002,0.682112,-0.093440,-0.140160,,0,0,0,0,0,,,,,,,,,-71,17:33:16.517,
,,1649,4020,490,545,529,0.039062,0.050781,0.250000,-20.160000,-10.080000,32.480000,0.682112,-0.093440,-0.140160,,0,0,0,0,0,,,,,,,,,-71,17:33:16.517,
,,1650,4040,491,545,527,0.039062,0.050781,0.250000,-20.160000,-10.080000,32.480000,0.682112,-0.093440,-0.140160,,0,0,0,0,0,,,,,,,,,-71,17:33:16.573,
,,1651,4060,494,544,527,0.039062,0.050781,0.250000,-20.160000,-10.080000,32.480000,0.682112,-0.093440,-0.140160,,0,0,0,0,0,,,,,,,,,-71,17:33:16.573,
,,1652,4080,494,544,526,0.039062,0.050781,0.250000,-20.160000,-10.080000,32.480000,0.682112,-0.093440,-0.140160,,0,0,0,0,0,,,,,,,,,-71,17:33:16.574,
,,1653,4100,496,545,525,-0.062500,-0.324219,0.175781,-7.840000,-14.560000,8.960000,0.682112,-0.093440,-0.140160,,0,0,0,0,0,,,,,,,,,-71,17:33:16.603,
,,1654,4120,495,545,525,-0.062500,-0.324219,0.175781,-7.840000,-14.560000,8.960000,0.682112,-0.093440,-0.140160,,0,0,0,0,0,,,,,,,,,-71,17:33:16.634,
,,1655,4140,496,545,526,-0.062500,-0.324219,0.175781,-7.840000,-14.560000,8.960000,0.682112,-0.093440,-0.140160,,0,0,0,0,0,,,,,,,,,-71,17:33:16.634,
,,1656,4160,496,543,525,-0.062500,-0.324219,0.175781,-7.840000,-14.560000,8.960000,0.682112,-0.093440,-0.140160,,0,0,0,0,0,,,,,,,,,-71,17:33:16.668,
,,1657,4180,497,545,523,-0.078125,-0.351562,0.144531,-13.440001,17.920000,-11.200000,0.682112,-0.093440,-0.140160,,0,0,0,0,0,,,,,,,,,-71,17:33:16.693,
,,1658,4200,497,547,523,-0.078125,-0.351562,0.144531,-13.440001,17.920000,-11.200000,0.682112,-0.093440,-0.140160,,0,0,0,0,0,,,,,,,,,-71,17:33:16.693,
,,1659,4220,497,545,523,-0.078125,-0.351562,0.144531,-13.440001,17.920000,-11.200000,0.682112,-0.093440,-0.140160,,0,0,0,0,0,,,,,,,,,-71,17:33:16.722,
,,1660,4240,498,544,524,-0.187500,-0.351562,0.027344,2.240000,38.080002,-42.560001,0.682112,-0.093440,-0.140160,,0,0,0,0,0,,,,,,,,,-71,17:33:16.753,
,,1661,4260,495,544,523,-0.183594,-0.351562,0.027344,2.240000,38.080002,-42.560001,0.682112,-0.093440,-0.140160,,0,0,0,0,0,,,,,,,,,-71,17:33:16.753,
,,1662,4280,497,543,525,-0.183594,-0.351562,0.027344,2.240000,38.080002,-42.560001,0.682112,-0.093440,-0.140160,,0,0,0,0,0,,,,,,,,,-71,17:33:16.785,
,,1663,4300,495,544,525,-0.183594,-0.351562,0.027344,2.240000,38.080002,-42.560001,0.682112,-0.093440,-0.140160,,0,0,0,0,0,,,,,,,,,-71,17:33:16.817,
,,1664,4320,494,543,525,-0.156250,1.207031,0.312500,68.320000,50.400002,-104.160004,0.682112,-0.093440,-0.140160,,0,0,0,0,0,,,,,,,,,-71,17:33:16.818,
,,1665,4340,491,538,526,-0.156250,1.207031,0.312500,68.320000,50.400002,-104.160004,0.682112,-0.093440,-0.140160,,0,0,0,0,0,,,,,,,,,-71,17:33:16.843,
,,1666,4360,480,509,491,-0.156250,1.207031,0.312500,68.320000,50.400002,-104.160004,0.682112,-0.093440,-0.140160,,0,0,0,0,0,,,,,,,,,-71,17:33:16.873,
,,1667,4380,478,498,497,-0.156250,1.207031,0.312500,68.320000,50.400002,-104.160004,0.682112,-0.093440,-0.140160,,0,0,0,0,0,,,,,,,,,-71,17:33:16.873,
,,1668,4400,478,490,502,0.238281,0.859375,0.273438,107.520004,-16.799999,-125.440002,0.682112,-0.093440,-0.140160,,0,0,0,0,0,,,,,,,,,-71,17:33:16.903,
,,1669,4420,476,475,501,0.238281,0.859375,0.273438,107.520004,-16.799999,-125.440002,0.682112,-0.093440,-0.140160,,0,0,0,0,0,,,,,,,,,-71,17:33:16.935,
,,1670,4440,473,466,497,0.238281,0.859375,0.273438,107.520004,-16.799999,-125.440002,0.682112,-0.093440,-0.140160,,0,0,0,0,0,,,,,,,,,-71,17:33:16.935,
,,1671,4460,469,456,494,0.238281,0.859375,0.273438,107.520004,-16.799999,-125.440002,0.682112,-0.093440,-0.140160,,0,0,0,0,0,,,,,,,,,-71,17:33:16.962,
,,1672,4480,468,453,494,-0.246094,1.097656,-0.222656,5.600000,-10.080000,5.600000,0.682112,-0.093440,-0.140160,,0,0,0,0,0,,,,,,,,,-71,17:33:16.993,
,,1673,4500,468,449,492,-0.246094,1.097656,-0.222656,5.600000,-10.080000,5.600000,0.682112,-0.093440,-0.140160,,0,0,0,0,0,,,,,,,,,-71,17:33:16.993,
,,1674,4520,466,447,494,-0.246094,1.097656,-0.222656,5.600000,-10.080000,5.600000,0.682112,-0.093440,-0.140160,,0,0,0,0,0,,,,,,,,,-71,17:33:17.021,
,,1675,4540,467,446,496,-0.246094,1.097656,-0.222656,5.600000,-10.080000,5.600000,0.682112,-0.093440,-0.140160,,0,0,0,0,0,,,,,,,,,-71,17:33:17.051,
,,1676,4560,467,441,501,-0.132812,0.972656,0.140625,8.960000,-8.960000,4.480000,0.682112,-0.093440,-0.140160,,0,0,0,0,0,,,,,,,,,-71,17:33:17.052,
,,1677,4580,465,435,501,-0.132812,0.972656,0.140625,8.960000,-8.960000,4.480000,0.682112,-0.093440,-0.140160,,0,0,0,0,0,,,,,,,,,-71,17:33:17.086,
,,1678,4600,464,430,502,-0.132812,0.972656,0.140625,8.960000,-8.960000,4.480000,0.682112,-0.093440,-0.140160,,0,0,0,0,0,,,,,,,,,-71,17:33:17.111,
,,1679,4620,464,427,502,-0.132812,0.972656,0.140625,8.960000,-8.960000,4.480000,0.682112,-0.093440,-0.140160,,0,0,0,0,0,,,,,,,,,-71,17:33:17.112,
,,1680,4640,466,429,503,-0.128906,1.042969,-0.191406,13.440001,-7.840000,11.200000,0.682112,-0.093440,-0.140160,,0,0,0,0,0,,,,,,,,,-71,17:33:17.141,
,,1681,4660,466,441,504,-0.128906,1.042969,-0.191406,13.440001,-7.840000,11.200000,0.682112,-0.093440,-0.140160,,0,0,0,0,0,,,,,,,,,-71,17:33:17.172,
,,1682,4680,470,462,504,-0.128906,1.042969,-0.191406,13.440001,-7.840000,11.200000,0.682112,-0.093440,-0.140160,,0,0,0,0,0,,,,,,,,,-71,17:33:17.172,
,,1683,4700,477,491,504,-0.015625,1.042969,-0.093750,10.080000,0.000000,-1.120000,0.682112,-0.093440,-0.140160,,0,0,0,0,0,,,,,,,,,-71,17:33:17.202,
,,1684,4720,484,515,504,-0.015625,1.042969,-0.093750,10.080000,0.000000,-1.120000,0.682112,-0.093440,-0.140160,,0,0,0,0,0,,,,,,,,,-71,17:33:17.235,
,,1685,4740,494,541,505,-0.015625,1.042969,-0.093750,10.080000,0.000000,-1.120000,0.682112,-0.093440,-0.140160,,0,0,0,0,0,,,,,,,,,-71,17:33:17.262,
,,1686,4760,497,546,506,-0.503906,1.105469,0.144531,4.480000,136.639999,-21.280001,0.682112,-0.093440,-0.140160,,0,0,0,0,0,,,,,,,,,-71,17:33:17.292,
,,1687,4780,500,548,507,-0.503906,1.105469,0.144531,4.480000,136.639999,-21.280001,0.682112,-0.093440,-0.140160,,0,0,0,0,0,,,,,,,,,-71,17:33:17.293,
,,1688,4800,499,548,509,-0.503906,1.105469,0.144531,4.480000,136.639999,-21.280001,0.682112,-0.093440,-0.140160,,0,0,0,0,0,,,,,,,,,-71,17:33:17.323,
,,1689,4820,501,545,513,-0.503906,1.105469,0.144531,4.480000,136.639999,-21.280001,0.682112,-0.093440,-0.140160,,0,0,0,0,0,,,,,,,,,-71,17:33:17.353,
,,1690,4840,501,537,511,-0.468750,0.378906,0.351562,-16.799999,153.440002,-40.320000,0.682112,-0.093440,-0.140160,,0,0,0,0,0,,,,,,,,,-71,17:33:17.353,
,,1691,4860,500,524,510,-0.468750,0.378906,0.351562,-16.799999,153.440002,-40.320000,0.682112,-0.093440,-0.140160,,0,0,0,0,0,,,,,,,,,-71,17:33:17.387,
,,1692,4880,498,504,509,-0.468750,0.378906,0.351562,-16.799999,153.440002,-40.320000,0.682112,-0.093440,-0.140160,,0,0,0,0,0,,,,,,,,,-71,17:33:17.413,
,,1693,4900,494,480,506,-0.468750,0.378906,0.351562,-16.799999,153.440002,-40.320000,0.682112,-0.093440,-0.140160,,0,0,0,0,0,,,,,,,,,-71,17:33:17.413,
,,1694,4920,488,455,501,0.632812,0.921875,0.082031,13.440001,14.560000,8.960000,0.682112,-0.093440,-0.140160,,0,0,0,0,0,,,,,,,,,-71,17:33:17.443,
,,1695,4940,484,434,496,0.632812,0.921875,0.082031,13.440001,14.560000,8.960000,0.682112,-0.093440,-0.140160,,0,0,0,0,0,,,,,,,,,-71,17:33:17.472,
,,1696,4960,478,417,491,0.632812,0.921875,0.082031,13.440001,14.560000,8.960000,0.682112,-0.093440,-0.140160,,0,0,0,0,0,,,,,,,,,-71,17:33:17.473,
,,1697,4980,473,404,487,0.632812,0.921875,0.082031,13.440001,14.560000,8.960000,0.682112,-0.093440,-0.140160,,0,0,0,0,0,,,,,,,,,-71,17:33:17.503,
,,1698,5000,471,393,487,-0.019531,0.976562,0.246094,-5.600000,-3.360000,5.600000,0.682112,-0.093440,-0.140160,,0,0,0,0,0,,,,,,,,,-71,17:33:17.536,
,,1699,5020,467,381,484,-0.019531,0.976562,0.246094,-5.600000,-3.360000,5.600000,0.682112,-0.093440,-0.140160,,0,0,0,0,0,,,,,,,,,-71,17:33:17.536,
,,1700,5040,463,369,486,-0.019531,0.976562,0.246094,-5.600000,-3.360000,5.600000,0.682112,-0.093440,-0.140160,,0,0,0,0,0,,,,,,,,,-71,17:33:17.562,
,,1701,5060,461,360,488,0.082031,0.984375,0.062500,-4.480000,-6.720000,13.440001,0.682112,-0.093440,-0.140160,,0,0,0,0,0,,,,,,,,,-71,17:33:17.593,
,,1702,5080,457,350,491,0.082031,0.984375,0.062500,-4.480000,-6.720000,13.440001,0.682112,-0.093440,-0.140160,,0,0,0,0,0,,,,,,,,,-71,17:33:17.593,
,,1703,5100,454,345,493,0.082031,0.984375,0.062500,-4.480000,-6.720000,13.440001,0.682112,-0.093440,-0.140160,,0,0,0,0,0,,,,,,,,,-71,17:33:17.623,
,,1704,5120,450,344,494,0.082031,0.984375,0.062500,-4.480000,-6.720000,13.440001,0.682112,-0.093440,-0.140160,,0,0,0,0,0,,,,,,,,,-71,17:33:17.653,
,,1705,5140,449,342,494,-0.070312,0.996094,0.066406,-4.480000,-7.840000,7.840000,0.682112,-0.093440,-0.140160,,0,0,0,0,0,,,,,,,,,-71,17:33:17.653,
,,1706,5160,449,341,493,-0.070312,0.996094,0.066406,-4.480000,-7.840000,7.840000,0.682112,-0.093440,-0.140160,,0,0,0,0,0,,,,,,,,,-71,17:33:17.688,
,,1707,5180,449,341,492,-0.070312,0.996094,0.066406,-4.480000,-7.840000,7.840000,0.682112,-0.093440,-0.140160,,0,0,0,0,0,,,,,,,,,-71,17:33:17.713,
,,1708,5200,448,342,493,-0.070312,0.996094,0.066406,-4.480000,-7.840000,7.840000,0.682112,-0.093440,-0.140160,,0,0,0,0,0,,,,,,,,,-71,17:33:17.713,
,,1709,5220,448,342,495,0.046875,0.972656,0.152344,0.000000,-7.840000,-3.360000,0.682112,-0.093440,-0.140160,,0,0,0,0,0,,,,,,,,,-71,17:33:17.742,
,,1710,5240,448,342,495,0.046875,0.972656,0.152344,0.000000,-7.840000,-3.360000,0.682112,-0.093440,-0.140160,,0,0,0,0,0,,,,,,,,,-71,17:33:17.773,
,,1711,5260,448,340,496,0.046875,0.972656,0.152344,0.000000,-7.840000,-3.360000,0.682112,-0.093440,-0.140160,,0,0,0,0,0,,,,,,,,,-71,17:33:17.773,
,,1712,5280,448,340,496,0.046875,0.972656,0.152344,0.000000,-7.840000,-3.360000,0.682112,-0.093440,-0.140160,,0,0,0,0,0,,,,,,,,,-71,17:33:17.803,
,,1713,5300,448,340,494,0.285156,0.929688,0.136719,-4.480000,-5.600000,-5.600000,0.682112,-0.093440,-0.140160,,0,0,0,0,0,,,,,,,,,-71,17:33:17.837,
,,1714,5320,447,340,492,0.285156,0.929688,0.136719,-4.480000,-5.600000,-5.600000,0.682112,-0.037376,-0.149504,,0,0,0,0,0,,,,,,,,,-71,17:33:17.837,
,,1715,5340,446,339,492,0.285156,0.929688,0.136719,-4.480000,-5.600000,-5.600000,0.682112,-0.037376,-0.149504,,0,0,0,0,0,,,,,,,,,-71,17:33:17.862,
,,1716,5360,447,340,492,0.285156,0.929688,0.136719,-4.480000,-5.600000,-5.600000,0.682112,-0.037376,-0.149504,,0,0,0,0,0,,,,,,,,,-71,17:33:17.893,
,,1717,5380,445,341,491,-0.246094,1.031250,0.031250,-15.680000,1.120000,-10.080000,0.682112,-0.037376,-0.149504,,0,0,0,0,0,,,,,,,,,-71,17:33:17.893,
,,1718,5400,445,340,493,-0.246094,1.031250,0.031250,-15.680000,1.120000,-10.080000,0.682112,-0.037376,-0.149504,,0,0,0,0,0,,,,,,,,,-71,17:33:17.923,
,,1719,5420,446,340,495,-0.246094,1.031250,0.031250,-15.680000,1.120000,-10.080000,0.682112,-0.037376,-0.149504,,0,0,0,0,0,,,,,,,,,-71,17:33:17.953,
,,1720,5440,444,339,493,-0.246094,1.031250,0.031250,-15.680000,1.120000,-10.080000,0.682112,-0.037376,-0.149504,,0,0,0,0,0,,,,,,,,,-71,17:33:17.953,
,,1721,5460,446,344,491,-0.031250,0.996094,0.031250,-15.680000,0.000000,-10.080000,0.682112,-0.037376,-0.149504,,0,0,0,0,0,,,,,,,,,-71,17:33:17.987,
,,1722,5480,446,348,491,-0.031250,0.996094,0.031250,-15.680000,0.000000,-10.080000,0.682112,-0.037376,-0.149504,,0,0,0,0,0,,,,,,,,,-71,17:33:18.013,
,,1723,5500,446,353,489,-0.031250,0.996094,0.031250,-15.680000,0.000000,-10.080000,0.682112,-0.037376,-0.149504,,0,0,0,0,0,,,,,,,,,-71,17:33:18.013,
,,1724,5520,445,360,485,-0.039062,0.988281,0.128906,-22.400000,7.840000,-19.040001,0.682112,-0.037376,-0.149504,,0,0,0,0,0,,,,,,,,,-71,17:33:18.042,
,,1725,5540,449,367,482,-0.039062,0.988281,0.128906,-22.400000,7.840000,-19.040001,0.682112,-0.037376,-0.149504,,0,0,0,0,0,,,,,,,,,-71,17:33:18.073,
,,1726,5560,451,378,479,-0.039062,0.988281,0.128906,-22.400000,7.840000,-19.040001,0.682112,-0.037376,-0.149504,,0,0,0,0,0,,,,,,,,,-71,17:33:18.073,
,,1727,5580,453,391,473,-0.039062,0.988281,0.128906,-22.400000,7.840000,-19.040001,0.682112,-0.037376,-0.149504,,0,0,0,0,0,,,,,,,,,-71,17:33:18.104,
,,1728,5600,456,405,470,0.156250,0.886719,0.339844,-31.360001,16.799999,-25.760000,0.682112,-0.037376,-0.149504,,0,0,0,0,0,,,,,,,,,-71,17:33:18.137,
,,1729,5620,458,419,467,0.156250,0.886719,0.339844,-31.360001,16.799999,-25.760000,0.682112,-0.037376,-0.149504,,0,0,0,0,0,,,,,,,,,-71,17:33:18.138,
,,1730,5640,460,434,464,0.156250,0.886719,0.339844,-31.360001,16.799999,-25.760000,0.682112,-0.037376,-0.149504,,0,0,0,0,0,,,,,,,,,-71,17:33:18.162,
,,1731,5660,461,449,464,0.156250,0.886719,0.339844,-31.360001,16.799999,-25.760000,0.682112,-0.037376,-0.149504,,0,0,0,0,0,,,,,,,,,-71,17:33:18.193,
,,1732,5680,463,461,467,0.257812,0.902344,0.421875,-36.959999,11.200000,-31.360001,0.682112,-0.037376,-0.149504,,0,0,0,0,0,,,,,,,,,-71,17:33:18.193,
,,1733,5700,463,467,476,0.257812,0.902344,0.421875,-36.959999,11.200000,-31.360001,0.682112,-0.037376,-0.149504,,0,0,0,0,0,,,,,,,,,-71,17:33:18.223,
,,1734,5720,464,464,509,0.257812,0.902344,0.421875,-36.959999,11.200000,-31.360001,0.682112,-0.037376,-0.149504,,0,0,0,0,0,,,,,,,,,-71,17:33:18.254,
,,1735,5740,464,460,519,-0.019531,1.238281,0.214844,-39.200001,-6.720000,-35.840000,0.682112,-0.037376,-0.149504,,0,0,0,0,0,,,,,,,,,-71,17:33:18.290,
,,1736,5760,468,464,523,-0.019531,1.238281,0.214844,-39.200001,-6.720000,-35.840000,0.682112,-0.037376,-0.149504,,0,0,0,0,0,,,,,,,,,-71,17:33:18.313,
,,1737,5780,477,474,525,-0.019531,1.238281,0.214844,-39.200001,-6.720000,-35.840000,0.682112,-0.037376,-0.149504,,0,0,0,0,0,,,,,,,,,-71,17:33:18.313,
,,1738,5800,481,480,526,-0.019531,1.238281,0.214844,-39.200001,-6.720000,-35.840000,0.682112,-0.037376,-0.149504,,0,0,0,0,0,,,,,,,,,-71,17:33:18.343,
,,1739,5820,487,487,526,0.480469,1.859375,0.398438,-70.559998,-14.560000,3.360000,0.682112,-0.037376,-0.149504,,0,0,0,0,0,,,,,,,,,-71,17:33:18.373,
,,1740,5840,491,496,526,0.480469,1.859375,0.398438,-70.559998,-14.560000,3.360000,0.682112,-0.037376,-0.149504,,0,0,0,0,0,,,,,,,,,-71,17:33:18.373,
,,1741,5860,494,504,526,0.480469,1.859375,0.398438,-70.559998,-14.560000,3.360000,0.682112,-0.037376,-0.149504,,0,0,0,0,0,,,,,,,,,-71,17:33:18.405,
,,1742,5880,493,510,524,0.113281,0.945312,-0.613281,-97.440002,-148.960007,90.720001,0.682112,-0.037376,-0.149504,,0,0,0,0,0,,,,,,,,,-71,17:33:18.438,
,,1743,5900,495,518,525,0.113281,0.945312,-0.613281,-97.440002,-148.960007,90.720001,0.682112,-0.037376,-0.149504,,0,0,0,0,0,,,,,,,,,-71,17:33:18.438,
,,1744,5920,496,524,523,0.113281,0.945312,-0.613281,-97.440002,-148.960007,90.720001,0.682112,-0.037376,-0.149504,,0,0,0,0,0,,,,,,,,,-71,17:33:18.462,
,,1745,5940,496,530,523,0.113281,0.945312,-0.613281,-97.440002,-148.960007,90.720001,0.682112,-0.037376,-0.149504,,0,0,0,0,0,,,,,,,,,-71,17:33:18.493,
,,1746,5960,494,532,524,-0.238281,0.664062,-0.042969,-17.920000,-100.800003,78.400002,0.682112,-0.037376,-0.149504,,0,0,0,0,0,,,,,,,,,-71,17:33:18.493,
,,1747,5980,496,535,522,-0.238281,0.664062,-0.042969,-17.920000,-100.800003,78.400002,0.682112,-0.037376,-0.149504,,0,0,0,0,0,,,,,,,,,-71,17:33:18.523,
,,1748,6000,494,538,522,-0.238281,0.664062,-0.042969,-17.920000,-100.800003,78.400002,0.682112,-0.037376,-0.149504,,0,0,0,0,0,,,,,,,,,-71,17:33:18.554,
,,1749,6020,495,540,522,-0.238281,0.664062,-0.042969,-17.920000,-100.800003,78.400002,0.682112,-0.037376,-0.149504,,0,0,0,0,0,,,,,,,,,-71,17:33:18.555,
,,1750,6040,494,541,521,-0.171875,0.652344,0.371094,52.639999,-47.040001,21.280001,0.682112,-0.037376,-0.149504,,0,0,0,0,0,,,,,,,,,-71,17:33:18.582,
,,1751,6060,494,542,521,-0.171875,0.652344,0.371094,52.639999,-47.040001,21.280001,0.682112,-0.037376,-0.149504,,0,0,0,0,0,,,,,,,,,-71,17:33:18.613,
,,1752,6080,495,544,521,-0.171875,0.652344,0.371094,52.639999,-47.040001,21.280001,0.682112,-0.037376,-0.149504,,0,0,0,0,0,,,,,,,,,-71,17:33:18.613,
,,1753,6100,496,544,521,-0.171875,0.652344,0.371094,52.639999,-47.040001,21.280001,0.682112,-0.037376,-0.149504,,0,0,0,0,0,,,,,,,,,-71,17:33:18.643,
,,1754,6120,496,543,520,-0.410156,0.718750,0.597656,79.519997,1.120000,-38.080002,0.682112,-0.037376,-0.149504,,0,0,0,0,0,,,,,,,,,-71,17:33:18.673,
,,1755,6140,496,543,520,-0.410156,0.718750,0.597656,79.519997,1.120000,-38.080002,0.682112,-0.037376,-0.149504,,0,0,0,0,0,,,,,,,,,-71,17:33:18.673,
,,1756,6160,495,542,519,-0.410156,0.718750,0.597656,79.519997,1.120000,-38.080002,0.682112,-0.037376,-0.149504,,0,0,0,0,0,,,,,,,,,-71,17:33:18.732,
,,1757,6180,495,543,519,-0.410156,0.718750,0.597656,79.519997,1.120000,-38.080002,0.682112,-0.037376,-0.149504,,0,0,0,0,0,,,,,,,,,-71,17:33:18.732,
,,1758,6200,496,543,519,-0.316406,0.917969,0.597656,89.599998,-1.120000,-68.320000,0.682112,-0.037376,-0.149504,,0,0,0,0,0,,,,,,,,,-71,17:33:18.733,
,,1759,6220,495,542,518,-0.316406,0.917969,0.597656,89.599998,-1.120000,-68.320000,0.682112,-0.037376,-0.149504,,0,0,0,0,0,,,,,,,,,-71,17:33:18.764,
,,1760,6240,495,542,519,-0.316406,0.917969,0.597656,89.599998,-1.120000,-68.320000,0.682112,-0.037376,-0.149504,,0,0,0,0,0,,,,,,,,,-71,17:33:18.793,
,,1761,6260,495,542,519,-0.113281,1.050781,0.429688,77.279999,-19.040001,-80.639999,0.682112,-0.037376,-0.149504,,0,0,0,0,0,,,,,,,,,-71,17:33:18.793,
,,1762,6280,495,541,518,-0.113281,1.050781,0.429688,77.279999,-19.040001,-80.639999,0.682112,-0.037376,-0.149504,,0,0,0,0,0,,,,,,,,,-71,17:33:18.823,
,,1763,6300,494,542,519,-0.113281,1.050781,0.429688,77.279999,-19.040001,-80.639999,0.682112,-0.037376,-0.149504,,0,0,0,0,0,,,,,,,,,-71,17:33:18.856,
,,1764,6320,494,542,520,-0.113281,1.050781,0.429688,77.279999,-19.040001,-80.639999,0.682112,-0.037376,-0.149504,,0,0,0,0,0,,,,,,,,,-71,17:33:18.857,
,,1765,6340,495,542,521,-0.007812,1.187500,0.242188,53.760002,-16.799999,-70.559998,0.682112,-0.037376,-0.149504,,0,0,0,0,0,,,,,,,,,-71,17:33:18.882,
,,1766,6360,494,541,517,-0.007812,1.187500,0.242188,53.760002,-16.799999,-70.559998,0.682112,-0.037376,-0.149504,,0,0,0,0,0,,,,,,,,,-71,17:33:18.913,
,,1767,6380,494,541,517,-0.007812,1.187500,0.242188,53.760002,-16.799999,-70.559998,0.682112,-0.037376,-0.149504,,0,0,0,0,0,,,,,,,,,-71,17:33:18.913,
,,1768,6400,493,541,516,-0.007812,1.187500,0.242188,53.760002,-16.799999,-70.559998,0.682112,-0.037376,-0.149504,,0,0,0,0,0,,,,,,,,,-71,17:33:18.943,
,,1769,6420,492,538,511,0.523438,0.593750,0.300781,8.960000,4.480000,1.120000,0.682112,-0.037376,-0.149504,,0,0,0,0,0,,,,,,,,,-71,17:33:18.973,
,,1770,6440,489,531,503,0.523438,0.593750,0.300781,8.960000,4.480000,1.120000,0.682112,-0.037376,-0.149504,,0,0,0,0,0,,,,,,,,,-71,17:33:18.973,
,,1771,6460,487,516,496,0.523438,0.593750,0.300781,8.960000,4.480000,1.120000,0.682112,-0.037376,-0.149504,,0,0,0,0,0,,,,,,,,,-71,17:33:19.006,
,,1772,6480,484,495,486,0.523438,0.593750,0.300781,8.960000,4.480000,1.120000,0.682112,-0.037376,-0.149504,,0,0,0,0,0,,,,,,,,,-71,17:33:19.032,
,,1773,6500,479,471,474,0.050781,0.945312,0.167969,-26.880001,2.240000,20.160000,0.682112,-0.037376,-0.149504,,0,0,0,0,0,,,,,,,,,-71,17:33:19.033,
,,1774,6520,475,446,468,0.050781,0.945312,0.167969,-26.880001,2.240000,20.160000,0.682112,-0.037376,-0.149504,,0,0,0,0,0,,,,,,,,,-71,17:33:19.062,
,,1775,6540,471,423,460,0.050781,0.945312,0.167969,-26.880001,2.240000,20.160000,0.682112,-0.037376,-0.149504,,0,0,0,0,0,,,,,,,,,-71,17:33:19.093,
,,1776,6560,469,400,457,0.050781,0.945312,0.167969,-26.880001,2.240000,20.160000,0.682112,-0.037376,-0.149504,,0,0,0,0,0,,,,,,,,,-71,17:33:19.093,
,,1777,6580,465,382,457,0.269531,0.960938,0.203125,-22.400000,-13.440001,4.480000,0.682112,-0.037376,-0.149504,,0,0,0,0,0,,,,,,,,,-71,17:33:19.124,
,,1778,6600,463,367,458,0.269531,0.960938,0.203125,-22.400000,-13.440001,4.480000,0.682112,-0.037376,-0.149504,,0,0,0,0,0,,,,,,,,,-71,17:33:19.155,
,,1779,6620,459,355,462,0.269531,0.960938,0.203125,-22.400000,-13.440001,4.480000,0.682112,-0.037376,-0.149504,,0,0,0,0,0,,,,,,,,,-71,17:33:19.156,
,,1780,6640,457,343,467,0.269531,0.960938,0.203125,-22.400000,-13.440001,4.480000,0.682112,-0.037376,-0.149504,,0,0,0,0,0,,,,,,,,,-71,17:33:19.182,
,,1781,6660,454,334,477,0.214844,0.882812,0.210938,-8.960000,-11.200000,7.840000,0.682112,-0.037376,-0.149504,,0,0,0,0,0,,,,,,,,,-71,17:33:19.211,
,,1782,6680,449,328,484,0.214844,0.882812,0.210938,-8.960000,-11.200000,7.840000,0.682112,-0.037376,-0.149504,,0,0,0,0,0,,,,,,,,,-71,17:33:19.212,
,,1783,6700,448,326,495,-0.246094,1.015625,-0.207031,-5.600000,-13.440001,4.480000,0.682112,-0.037376,-0.149504,,0,0,0,0,0,,,,,,,,,-71,17:33:19.272,
,,1784,6720,449,328,498,-0.246094,1.015625,-0.207031,-5.600000,-13.440001,4.480000,0.682112,-0.037376,-0.149504,,0,0,0,0,0,,,,,,,,,-71,17:33:19.282,
,,1785,6740,449,329,497,-0.246094,1.015625,-0.207031,-5.600000,-13.440001,4.480000,0.682112,-0.037376,-0.149504,,0,0,0,0,0,,,,,,,,,-71,17:33:19.303,
,,1786,6760,447,331,496,-0.246094,1.015625,-0.207031,-5.600000,-13.440001,4.480000,0.682112,-0.037376,-0.149504,,0,0,0,0,0,,,,,,,,,-71,17:33:19.333,
,,1787,6780,450,332,495,-0.117188,0.734375,0.031250,1.120000,-5.600000,-10.080000,0.682112,-0.037376,-0.149504,,0,0,0,0,0,,,,,,,,,-71,17:33:19.334,
,,1788,6800,449,331,494,-0.117188,0.734375,0.031250,1.120000,-5.600000,-10.080000,0.682112,-0.037376,-0.149504,,0,0,0,0,0,,,,,,,,,-71,17:33:19.363,
,,1789,6820,449,330,491,-0.117188,0.734375,0.031250,1.120000,-5.600000,-10.080000,0.682112,-0.037376,-0.149504,,0,0,0,0,0,,,,,,,,,-71,17:33:19.394,
,,1790,6840,448,332,487,-0.117188,0.734375,0.031250,1.120000,-5.600000,-10.080000,0.682112,-0.037376,-0.149504,,0,0,0,0,0,,,,,,,,,-71,17:33:19.423,
,,1791,6860,450,331,484,0.105469,0.796875,0.128906,0.000000,1.120000,-15.680000,0.635392,0.121472,-0.074752,,0,0,0,0,0,,,,,,,,,-71,17:33:19.424,
,,1792,6880,450,332,482,0.105469,0.796875,0.128906,0.000000,1.120000,-15.680000,0.635392,0.121472,-0.074752,,0,0,0,0,0,,,,,,,,,-71,17:33:19.453,
,,1793,6900,451,333,482,0.105469,0.796875,0.128906,0.000000,1.120000,-15.680000,0.635392,0.121472,-0.074752,,0,0,0,0,0,,,,,,,,,-71,17:33:19.454,
,,1794,6920,454,333,477,0.105469,0.796875,0.128906,0.000000,1.120000,-15.680000,0.635392,0.121472,-0.074752,,0,0,0,0,0,,,,,,,,,-71,17:33:19.483,
,,1795,6940,453,334,477,0.132812,0.824219,0.160156,-4.480000,-1.120000,-13.440001,0.635392,0.121472,-0.074752,,0,0,0,0,0,,,,,,,,,-71,17:33:19.512,
,,1796,6960,454,336,474,0.132812,0.824219,0.160156,-4.480000,-1.120000,-13.440001,0.635392,0.121472,-0.074752,,0,0,0,0,0,,,,,,,,,-71,17:33:19.513,
,,1797,6980,453,338,470,0.132812,0.824219,0.160156,-4.480000,-1.120000,-13.440001,0.635392,0.121472,-0.074752,,0,0,0,0,0,,,,,,,,,-71,17:33:19.543,
,,1798,7000,455,341,468,0.132812,0.824219,0.160156,-4.480000,-1.120000,-13.440001,0.635392,0.121472,-0.074752,,0,0,0,0,0,,,,,,,,,-71,17:33:19.573,
,,1799,7020,456,341,466,0.144531,0.917969,0.050781,-15.680000,-6.720000,-12.320000,0.635392,0.121472,-0.074752,,0,0,0,0,0,,,,,,,,,-71,17:33:19.574,
,,1800,7040,457,342,464,0.144531,0.917969,0.050781,-15.680000,-6.720000,-12.320000,0.635392,0.121472,-0.074752,,0,0,0,0,0,,,,,,,,,-71,17:33:19.603,
,,1801,7060,458,343,461,0.144531,0.917969,0.050781,-15.680000,-6.720000,-12.320000,0.635392,0.121472,-0.074752,,0,0,0,0,0,,,,,,,,,-71,17:33:19.663,
,,1802,7080,457,345,458,-0.019531,0.761719,0.093750,-21.280001,-1.120000,-21.280001,0.635392,0.121472,-0.074752,,0,0,0,0,0,,,,,,,,,-71,17:33:19.664,
,,1803,7100,458,345,456,-0.019531,0.761719,0.093750,-21.280001,-1.120000,-21.280001,0.635392,0.121472,-0.074752,,0,0,0,0,0,,,,,,,,,-71,17:33:19.665,
,,1804,7120,459,345,457,-0.019531,0.761719,0.093750,-21.280001,-1.120000,-21.280001,0.635392,0.121472,-0.074752,,0,0,0,0,0,,,,,,,,,-71,17:33:19.691,
,,1805,7140,460,346,454,-0.019531,0.761719,0.093750,-21.280001,-1.120000,-21.280001,0.635392,0.121472,-0.074752,,0,0,0,0,0,,,,,,,,,-71,17:33:19.701,
,,1806,7160,461,347,455,0.117188,0.863281,0.253906,-24.639999,-1.120000,-21.280001,0.635392,0.121472,-0.074752,,0,0,0,0,0,,,,,,,,,-71,17:33:19.721,
,,1807,7180,461,348,456,0.117188,0.863281,0.253906,-24.639999,-1.120000,-21.280001,0.635392,0.121472,-0.074752,,0,0,0,0,0,,,,,,,,,-71,17:33:19.751,
,,1808,7200,462,353,456,0.117188,0.863281,0.253906,-24.639999,-1.120000,-21.280001,0.635392,0.121472,-0.074752,,0,0,0,0,0,,,,,,,,,-71,17:33:19.759,
,,1809,7220,465,362,454,0.117188,0.863281,0.253906,-24.639999,-1.120000,-21.280001,0.635392,0.121472,-0.074752,,0,0,0,0,0,,,,,,,,,-71,17:33:19.783,
,,1810,7240,468,371,456,0.289062,0.875000,0.343750,-36.959999,3.360000,-20.160000,0.635392,0.121472,-0.074752,,0,0,0,0,0,,,,,,,,,-71,17:33:19.811,
,,1811,7260,467,382,458,0.289062,0.875000,0.343750,-36.959999,3.360000,-20.160000,0.635392,0.121472,-0.074752,,0,0,0,0,0,,,,,,,,,-71,17:33:19.813,
,,1812,7280,469,395,463,0.289062,0.875000,0.343750,-36.959999,3.360000,-20.160000,0.635392,0.121472,-0.074752,,0,0,0,0,0,,,,,,,,,-71,17:33:19.843,
,,1813,7300,469,408,471,0.289062,0.875000,0.343750,-36.959999,3.360000,-20.160000,0.635392,0.121472,-0.074752,,0,0,0,0,0,,,,,,,,,-71,17:33:19.874,
,,1814,7320,472,417,477,0.332031,0.828125,0.386719,-42.560001,0.000000,-22.400000,0.635392,0.121472,-0.074752,,0,0,0,0,0,,,,,,,,,-71,17:33:19.875,
,,1815,7340,472,422,486,0.332031,0.828125,0.386719,-42.560001,0.000000,-22.400000,0.635392,0.121472,-0.074752,,0,0,0,0,0,,,,,,,,,-71,17:33:19.903,
,,1816,7360,471,423,498,0.332031,0.828125,0.386719,-42.560001,0.000000,-22.400000,0.635392,0.121472,-0.074752,,0,0,0,0,0,,,,,,,,,-71,17:33:19.942,
,,1817,7380,471,421,509,0.332031,0.828125,0.386719,-42.560001,0.000000,-22.400000,0.635392,0.121472,-0.074752,,0,0,0,0,0,,,,,,,,,-71,17:33:19.943,
,,1818,7400,467,413,514,0.074219,1.257812,0.335938,-49.279999,-4.480000,-23.520000,0.635392,0.121472,-0.074752,,0,0,0,0,0,,,,,,,,,-71,17:33:19.970,
,,1819,7420,468,403,518,0.074219,1.257812,0.335938,-49.279999,-4.480000,-23.520000,0.635392,0.121472,-0.074752,,0,0,0,0,0,,,,,,,,,-71,17:33:19.993,
,,1820,7440,467,391,520,0.074219,1.257812,0.335938,-49.279999,-4.480000,-23.520000,0.635392,0.121472,-0.074752,,0,0,0,0,0,,,,,,,,,-71,17:33:19.994,
,,1821,7460,468,382,524,0.074219,1.257812,0.335938,-49.279999,-4.480000,-23.520000,0.635392,0.121472,-0.074752,,0,0,0,0,0,,,,,,,,,-71,17:33:20.023,
,,1822,7480,473,381,527,0.050781,1.910156,0.082031,-101.919998,-22.400000,20.160000,0.635392,0.121472,-0.074752,,0,0,0,0,0,,,,,,,,,-71,17:33:20.053,
,,1823,7500,479,386,536,0.050781,1.910156,0.082031,-101.919998,-22.400000,20.160000,0.635392,0.121472,-0.074752,,0,0,0,0,0,,,,,,,,,-71,17:33:20.054,
,,1824,7520,484,398,549,0.050781,1.910156,0.082031,-101.919998,-22.400000,20.160000,0.635392,0.121472,-0.074752,,0,0,0,0,0,,,,,,,,,-71,17:33:20.084,
,,1825,7540,488,406,557,0.195312,0.632812,0.339844,-166.880005,1.120000,155.680008,0.635392,0.121472,-0.074752,,0,0,0,0,0,,,,,,,,,-71,17:33:20.113,
,,1826,7560,489,411,564,0.195312,0.632812,0.339844,-166.880005,1.120000,155.680008,0.635392,0.121472,-0.074752,,0,0,0,0,0,,,,,,,,,-71,17:33:20.114,
,,1827,7580,490,420,566,0.195312,0.632812,0.339844,-166.880005,1.120000,155.680008,0.635392,0.121472,-0.074752,,0,0,0,0,0,,,,,,,,,-71,17:33:20.144,
,,1828,7600,491,433,567,0.195312,0.632812,0.339844,-166.880005,1.120000,155.680008,0.635392,0.121472,-0.074752,,0,0,0,0,0,,,,,,,,,-71,17:33:20.173,
,,1829,7620,492,451,570,0.355469,0.867188,-0.417969,-97.440002,-157.919998,77.279999,0.635392,0.121472,-0.074752,,0,0,0,0,0,,,,,,,,,-71,17:33:20.174,
,,1830,7640,492,466,572,0.355469,0.867188,-0.417969,-97.440002,-157.919998,77.279999,0.635392,0.121472,-0.074752,,0,0,0,0,0,,,,,,,,,-71,17:33:20.204,
,,1831,7660,494,482,574,0.355469,0.867188,-0.417969,-97.440002,-157.919998,77.279999,0.635392,0.121472,-0.074752,,0,0,0,0,0,,,,,,,,,-71,17:33:20.234,
,,1832,7680,495,494,574,0.355469,0.867188,-0.417969,-97.440002,-157.919998,77.279999,0.635392,0.121472,-0.074752,,0,0,0,0,0,,,,,,,,,-71,17:33:20.235,
,,1833,7700,498,500,574,-0.234375,0.621094,0.386719,2.240000,-19.040001,-4.480000,0.635392,0.121472,-0.074752,,0,0,0,0,0,,,,,,,,,-71,17:33:20.264,
,,1834,7720,500,509,575,-0.234375,0.621094,0.386719,2.240000,-19.040001,-4.480000,0.635392,0.121472,-0.074752,,0,0,0,0,0,,,,,,,,,-71,17:33:20.294,
,,1835,7740,501,518,573,-0.234375,0.621094,0.386719,2.240000,-19.040001,-4.480000,0.635392,0.121472,-0.074752,,0,0,0,0,0,,,,,,,,,-71,17:33:20.295,
,,1836,7760,501,525,573,-0.234375,0.621094,0.386719,2.240000,-19.040001,-4.480000,0.635392,0.121472,-0.074752,,0,0,0,0,0,,,,,,,,,-71,17:33:20.323,
,,1837,7780,501,530,571,-0.019531,0.652344,0.378906,66.080002,-69.440002,-49.279999,0.635392,0.121472,-0.074752,,0,0,0,0,0,,,,,,,,,-71,17:33:20.383,
,,1838,7800,501,534,568,-0.019531,0.652344,0.378906,66.080002,-69.440002,-49.279999,0.635392,0.121472,-0.074752,,0,0,0,0,0,,,,,,,,,-71,17:33:20.385,
,,1839,7820,501,536,565,-0.019531,0.652344,0.378906,66.080002,-69.440002,-49.279999,0.635392,0.121472,-0.074752,,0,0,0,0,0,,,,,,,,,-71,17:33:20.386,
,,1840,7840,502,539,563,0.097656,0.722656,0.507812,106.400002,-21.280001,-50.400002,0.635392,0.121472,-0.074752,,0,0,0,0,0,,,,,,,,,-71,17:33:20.413,
,,1841,7860,503,539,562,0.097656,0.722656,0.507812,106.400002,-21.280001,-50.400002,0.635392,0.121472,-0.074752,,0,0,0,0,0,,,,,,,,,-71,17:33:20.414,
,,1842,7880,502,540,560,0.097656,0.722656,0.507812,106.400002,-21.280001,-50.400002,0.635392,0.121472,-0.074752,,0,0,0,0,0,,,,,,,,,-71,17:33:20.442,
,,1843,7900,502,539,560,0.097656,0.722656,0.507812,106.400002,-21.280001,-50.400002,0.635392,0.121472,-0.074752,,0,0,0,0,0,,,,,,,,,-71,17:33:20.473,
,,1844,7920,500,541,558,-0.070312,0.773438,0.707031,106.400002,48.160000,-61.599998,0.635392,0.121472,-0.074752,,0,0,0,0,0,,,,,,,,,-71,17:33:20.474,
,,1845,7940,502,541,555,-0.070312,0.773438,0.707031,106.400002,48.160000,-61.599998,0.635392,0.121472,-0.074752,,0,0,0,0,0,,,,,,,,,-71,17:33:20.504,
,,1846,7960,501,542,555,-0.070312,0.773438,0.707031,106.400002,48.160000,-61.599998,0.635392,0.121472,-0.074752,,0,0,0,0,0,,,,,,,,,-71,17:33:20.534,
,,1847,7980,500,542,554,-0.070312,0.773438,0.707031,106.400002,48.160000,-61.599998,0.635392,0.121472,-0.074752,,0,0,0,0,0,,,,,,,,,-71,17:33:20.535,
,,1848,8000,502,542,555,0.042969,0.839844,0.554688,103.040001,8.960000,-66.080002,0.635392,0.121472,-0.074752,,0,0,0,0,0,,,,,,,,,-71,17:33:20.564,
,,1849,8020,500,541,553,0.042969,0.839844,0.554688,103.040001,8.960000,-66.080002,0.635392,0.121472,-0.074752,,0,0,0,0,0,,,,,,,,,-71,17:33:20.593,
,,1850,8040,501,542,553,0.042969,0.839844,0.554688,103.040001,8.960000,-66.080002,0.635392,0.121472,-0.074752,,0,0,0,0,0,,,,,,,,,-71,17:33:20.594,
,,1851,8060,500,541,552,0.042969,0.839844,0.554688,103.040001,8.960000,-66.080002,0.635392,0.121472,-0.074752,,0,0,0,0,0,,,,,,,,,-71,17:33:20.623,
,,1852,8080,499,541,553,-0.050781,1.078125,0.390625,89.599998,1.120000,-70.559998,0.635392,0.121472,-0.074752,,0,0,0,0,0,,,,,,,,,-71,17:33:20.653,
,,1853,8100,500,542,552,-0.050781,1.078125,0.390625,89.599998,1.120000,-70.559998,0.635392,0.121472,-0.074752,,0,0,0,0,0,,,,,,,,,-71,17:33:20.654,
,,1854,8120,498,542,553,-0.050781,1.078125,0.390625,89.599998,1.120000,-70.559998,0.635392,0.121472,-0.074752,,0,0,0,0,0,,,,,,,,,-71,17:33:20.684,
,,1855,8140,499,542,552,-0.050781,1.078125,0.390625,89.599998,1.120000,-70.559998,0.635392,0.121472,-0.074752,,0,0,0,0,0,,,,,,,,,-71,17:33:20.714,
,,1856,8160,498,541,550,0.191406,0.792969,0.351562,64.959999,5.600000,-51.520000,0.635392,0.121472,-0.074752,,0,0,0,0,0,,,,,,,,,-71,17:33:20.715,
,,1857,8180,498,540,549,0.191406,0.792969,0.351562,64.959999,5.600000,-51.520000,0.635392,0.121472,-0.074752,,0,0,0,0,0,,,,,,,,,-71,17:33:20.744,
,,1858,8200,496,540,546,0.191406,0.792969,0.351562,64.959999,5.600000,-51.520000,0.635392,0.121472,-0.074752,,0,0,0,0,0,,,,,,,,,-71,17:33:20.774,
,,1859,8220,496,539,541,0.191406,0.792969,0.351562,64.959999,5.600000,-51.520000,0.635392,0.121472,-0.074752,,0,0,0,0,0,,,,,,,,,-71,17:33:20.776,
,,1860,8240,495,536,531,-0.015625,0.683594,0.171875,1.120000,32.480000,-2.240000,0.635392,0.121472,-0.074752,,0,0,0,0,0,,,,,,,,,-71,17:33:20.804,
,,1861,8260,494,532,519,-0.015625,0.683594,0.171875,1.120000,32.480000,-2.240000,0.635392,0.121472,-0.074752,,0,0,0,0,0,,,,,,,,,-71,17:33:20.834,
,,1862,8280,488,518,509,-0.015625,0.683594,0.171875,1.120000,32.480000,-2.240000,0.635392,0.121472,-0.074752,,0,0,0,0,0,,,,,,,,,-71,17:33:20.835,
,,1863,8300,486,500,498,0.300781,0.691406,0.199219,-25.760000,-14.560000,16.799999,0.635392,0.121472,-0.074752,,0,0,0,0,0,,,,,,,,,-71,17:33:20.864,
,,1864,8320,484,480,485,0.300781,0.691406,0.199219,-25.760000,-14.560000,16.799999,0.635392,0.121472,-0.074752,,0,0,0,0,0,,,,,,,,,-71,17:33:20.893,
,,1865,8340,480,457,476,0.300781,0.691406,0.199219,-25.760000,-14.560000,16.799999,0.635392,0.121472,-0.074752,,0,0,0,0,0,,,,,,,,,-71,17:33:20.894,
,,1866,8360,477,436,471,0.300781,0.691406,0.199219,-25.760000,-14.560000,16.799999,0.635392,0.121472,-0.074752,,0,0,0,0,0,,,,,,,,,-71,17:33:20.923,
,,1867,8380,477,416,468,0.089844,0.773438,0.027344,-14.560000,-16.799999,8.960000,0.635392,0.121472,-0.074752,,0,0,0,0,0,,,,,,,,,-71,17:33:20.953,
,,1868,8400,475,401,466,0.089844,0.773438,0.027344,-14.560000,-16.799999,8.960000,0.635392,0.121472,-0.074752,,0,0,0,0,0,,,,,,,,,-71,17:33:20.954,
,,1869,8420,473,382,469,0.089844,0.773438,0.027344,-14.560000,-16.799999,8.960000,0.635392,0.121472,-0.074752,,0,0,0,0,0,,,,,,,,,-71,17:33:20.984,
,,1870,8440,468,371,474,0.089844,0.773438,0.027344,-14.560000,-16.799999,8.960000,0.635392,0.121472,-0.074752,,0,0,0,0,0,,,,,,,,,-71,17:33:21.013,
,,1871,8460,466,364,473,0.054688,0.792969,0.023438,-2.240000,-14.560000,11.200000,0.448512,-0.065408,0.000000,,0,0,0,0,0,,,,,,,,,-71,17:33:21.014,
,,1872,8480,464,360,474,0.054688,0.792969,0.023438,-2.240000,-14.560000,11.200000,0.448512,-0.065408,0.000000,,0,0,0,0,0,,,,,,,,,-71,17:33:21.043,
,,1873,8500,462,361,475,0.054688,0.792969,0.023438,-2.240000,-14.560000,11.200000,0.448512,-0.065408,0.000000,,0,0,0,0,0,,,,,,,,,-71,17:33:21.074,
,,1874,8520,462,363,474,0.054688,0.792969,0.023438,-2.240000,-14.560000,11.200000,0.448512,-0.065408,0.000000,,0,0,0,0,0,,,,,,,,,-71,17:33:21.075,
,,1875,8540,464,365,473,0.019531,0.726562,-0.093750,-1.120000,-12.320000,2.240000,0.448512,-0.065408,0.000000,,0,0,0,0,0,,,,,,,,,-71,17:33:21.104,
,,1876,8560,464,366,471,0.019531,0.726562,-0.093750,-1.120000,-12.320000,2.240000,0.448512,-0.065408,0.000000,,0,0,0,0,0,,,,,,,,,-71,17:33:21.134,
,,1877,8580,464,368,467,0.019531,0.726562,-0.093750,-1.120000,-12.320000,2.240000,0.448512,-0.065408,0.000000,,0,0,0,0,0,,,,,,,,,-71,17:33:21.135,
,,1878,8600,465,371,459,0.019531,0.726562,-0.093750,-1.120000,-12.320000,2.240000,0.448512,-0.065408,0.000000,,0,0,0,0,0,,,,,,,,,-71,17:33:21.163,
,,1879,8620,467,372,454,0.015625,0.675781,0.050781,-6.720000,-2.240000,-13.440001,0.448512,-0.065408,0.000000,,0,0,0,0,0,,,,,,,,,-71,17:33:21.191,
,,1880,8640,468,377,449,0.015625,0.675781,0.050781,-6.720000,-2.240000,-13.440001,0.448512,-0.065408,0.000000,,0,0,0,0,0,,,,,,,,,-71,17:33:21.201,
,,1881,8660,471,386,446,0.015625,0.675781,0.050781,-6.720000,-2.240000,-13.440001,0.448512,-0.065408,0.000000,,0,0,0,0,0,,,,,,,,,-71,17:33:21.223,
,,1882,8680,472,393,439,0.015625,0.675781,0.050781,-6.720000,-2.240000,-13.440001,0.448512,-0.065408,0.000000,,0,0,0,0,0,,,,,,,,,-71,17:33:21.252,
,,1883,8700,474,398,438,0.023438,0.843750,0.152344,-12.320000,2.240000,-19.040001,0.448512,-0.065408,0.000000,,0,0,0,0,0,,,,,,,,,-71,17:33:21.253,
,,1884,8720,478,405,438,0.023438,0.843750,0.152344,-12.320000,2.240000,-19.040001,0.448512,-0.065408,0.000000,,0,0,0,0,0,,,,,,,,,-71,17:33:21.281,
,,1885,8740,477,403,439,0.023438,0.843750,0.152344,-12.320000,2.240000,-19.040001,0.448512,-0.065408,0.000000,,0,0,0,0,0,,,,,,,,,-71,17:33:21.312,
,,1886,8760,478,399,442,0.023438,0.843750,0.152344,-12.320000,2.240000,-19.040001,0.448512,-0.065408,0.000000,,0,0,0,0,0,,,,,,,,,-71,17:33:21.321,
,,1887,8780,477,393,443,0.082031,0.906250,0.070312,-1.120000,-7.840000,-13.440001,0.448512,-0.065408,0.000000,,0,0,0,0,0,,,,,,,,,-71,17:33:21.343,
,,1888,8800,477,387,445,0.082031,0.906250,0.070312,-1.120000,-7.840000,-13.440001,0.448512,-0.065408,0.000000,,0,0,0,0,0,,,,,,,,,-71,17:33:21.373,
,,1889,8820,476,384,448,0.082031,0.906250,0.070312,-1.120000,-7.840000,-13.440001,0.448512,-0.065408,0.000000,,0,0,0,0,0,,,,,,,,,-71,17:33:21.374,
,,1890,8840,475,379,446,0.082031,0.906250,0.070312,-1.120000,-7.840000,-13.440001,0.448512,-0.065408,0.000000,,0,0,0,0,0,,,,,,,,,-71,17:33:21.403,
,,1891,8860,476,379,445,0.085938,0.816406,0.070312,-3.360000,-10.080000,-5.600000,0.448512,-0.065408,0.000000,,0,0,0,0,0,,,,,,,,,-71,17:33:21.434,
,,1892,8880,475,380,444,0.085938,0.816406,0.070312,-3.360000,-10.080000,-5.600000,0.448512,-0.065408,0.000000,,0,0,0,0,0,,,,,,,,,-71,17:33:21.435,
,,1893,8900,476,385,441,0.085938,0.816406,0.070312,-3.360000,-10.080000,-5.600000,0.448512,-0.065408,0.000000,,0,0,0,0,0,,,,,,,,,-71,17:33:21.463,
,,1894,8920,476,388,441,0.015625,0.695312,0.007812,-13.440001,-4.480000,-5.600000,0.448512,-0.065408,0.000000,,0,0,0,0,0,,,,,,,,,-71,17:33:21.491,
,,1895,8940,478,393,437,0.015625,0.695312,0.007812,-13.440001,-4.480000,-5.600000,0.448512,-0.065408,0.000000,,0,0,0,0,0,,,,,,,,,-71,17:33:21.501,
,,1896,8960,479,396,434,0.015625,0.695312,0.007812,-13.440001,-4.480000,-5.600000,0.448512,-0.065408,0.000000,,0,0,0,0,0,,,,,,,,,-71,17:33:21.521,
,,1897,8980,480,398,434,0.015625,0.695312,0.007812,-13.440001,-4.480000,-5.600000,0.448512,-0.065408,0.000000,,0,0,0,0,0,,,,,,,,,-71,17:33:21.550,
,,1898,9000,481,397,434,-0.035156,0.796875,0.156250,-20.160000,0.000000,-11.200000,0.448512,-0.065408,0.000000,,0,0,0,0,0,,,,,,,,,-71,17:33:21.552,
,,1899,9020,481,394,434,-0.035156,0.796875,0.156250,-20.160000,0.000000,-11.200000,0.448512,-0.065408,0.000000,,0,0,0,0,0,,,,,,,,,-71,17:33:21.581,
,,1900,9040,480,391,433,-0.035156,0.796875,0.156250,-20.160000,0.000000,-11.200000,0.448512,-0.065408,0.000000,,0,0,0,0,0,,,,,,,,,-71,17:33:21.611,
,,1901,9060,479,389,436,-0.035156,0.796875,0.156250,-20.160000,0.000000,-11.200000,0.448512,-0.065408,0.000000,,0,0,0,0,0,,,,,,,,,-71,17:33:21.621,
,,1902,9080,481,386,438,0.207031,0.691406,0.246094,-19.040001,1.120000,-5.600000,0.448512,-0.065408,0.000000,,0,0,0,0,0,,,,,,,,,-71,17:33:21.643,
,,1903,9100,481,384,443,0.207031,0.691406,0.246094,-19.040001,1.120000,-5.600000,0.448512,-0.065408,0.000000,,0,0,0,0,0,,,,,,,,,-71,17:33:21.673,
,,1904,9120,480,383,445,0.207031,0.691406,0.246094,-19.040001,1.120000,-5.600000,0.448512,-0.065408,0.000000,,0,0,0,0,0,,,,,,,,,-71,17:33:21.674,
,,1905,9140,479,384,447,0.359375,0.914062,0.320312,-20.160000,12.320000,-6.720000,0.448512,-0.065408,0.000000,,0,0,0,0,0,,,,,,,,,-71,17:33:21.704,
,,1906,9160,480,386,455,0.359375,0.914062,0.320312,-20.160000,12.320000,-6.720000,0.448512,-0.065408,0.000000,,0,0,0,0,0,,,,,,,,,-71,17:33:21.734,
,,1907,9180,481,392,463,0.359375,0.914062,0.320312,-20.160000,12.320000,-6.720000,0.448512,-0.065408,0.000000,,0,0,0,0,0,,,,,,,,,-71,17:33:21.734,
,,1908,9200,482,399,476,0.359375,0.914062,0.320312,-20.160000,12.320000,-6.720000,0.448512,-0.065408,0.000000,,0,0,0,0,0,,,,,,,,,-71,17:33:21.793,
,,1909,9220,480,404,487,0.441406,0.925781,0.292969,-32.480000,19.040001,-11.200000,0.448512,-0.065408,0.000000,,0,0,0,0,0,,,,,,,,,-71,17:33:21.794,
,,1910,9240,481,407,501,0.441406,0.925781,0.292969,-32.480000,19.040001,-11.200000,0.448512,-0.065408,0.000000,,0,0,0,0,0,,,,,,,,,-71,17:33:21.795,
,,1911,9260,477,404,512,0.441406,0.925781,0.292969,-32.480000,19.040001,-11.200000,0.448512,-0.065408,0.000000,,0,0,0,0,0,,,,,,,,,-71,17:33:21.820,
,,1912,9280,474,402,522,0.441406,0.925781,0.292969,-32.480000,19.040001,-11.200000,0.448512,-0.065408,0.000000,,0,0,0,0,0,,,,,,,,,-71,17:33:21.852,
,,1913,9300,473,400,526,0.109375,1.390625,0.218750,-56.000000,4.480000,3.360000,0.448512,-0.065408,0.000000,,0,0,0,0,0,,,,,,,,,-71,17:33:21.867,
,,1914,9320,472,400,531,0.109375,1.390625,0.218750,-56.000000,4.480000,3.360000,0.448512,-0.065408,0.000000,,0,0,0,0,0,,,,,,,,,-71,17:33:21.883,
,,1915,9340,480,415,540,0.109375,1.390625,0.218750,-56.000000,4.480000,3.360000,0.448512,-0.065408,0.000000,,0,0,0,0,0,,,,,,,,,-71,17:33:21.915,
,,1916,9360,487,444,545,0.109375,1.390625,0.218750,-56.000000,4.480000,3.360000,0.448512,-0.065408,0.000000,,0,0,0,0,0,,,,,,,,,-71,17:33:21.915,
,,1917,9380,493,472,549,0.433594,1.667969,0.460938,-106.400002,8.960000,86.239998,0.448512,-0.065408,0.000000,,0,0,0,0,0,,,,,,,,,-71,17:33:21.943,
,,1918,9400,495,493,551,0.433594,1.667969,0.460938,-106.400002,8.960000,86.239998,0.448512,-0.065408,0.000000,,0,0,0,0,0,,,,,,,,,-71,17:33:21.971,
,,1919,9420,497,503,551,0.433594,1.667969,0.460938,-106.400002,8.960000,86.239998,0.448512,-0.065408,0.000000,,0,0,0,0,0,,,,,,,,,-71,17:33:21.973,
,,1920,9440,498,512,550,0.433594,1.667969,0.460938,-106.400002,8.960000,86.239998,0.448512,-0.065408,0.000000,,0,0,0,0,0,,,,,,,,,-71,17:33:22.004,
,,1921,9460,498,520,550,0.445312,1.121094,-0.238281,-117.599998,-36.959999,204.960007,0.448512,-0.065408,0.000000,,0,0,0,0,0,,,,,,,,,-71,17:33:22.033,
,,1922,9480,498,525,549,0.445312,1.121094,-0.238281,-117.599998,-36.959999,204.960007,0.448512,-0.065408,0.000000,,0,0,0,0,0,,,,,,,,,-71,17:33:22.034,
,,1923,9500,497,528,548,0.445312,1.121094,-0.238281,-117.599998,-36.959999,204.960007,0.448512,-0.065408,0.000000,,0,0,0,0,0,,,,,,,,,-71,17:33:22.062,
,,1924,9520,497,529,548,-0.210938,0.425781,0.015625,-47.040001,-22.400000,182.559998,0.448512,-0.065408,0.000000,,0,0,0,0,0,,,,,,,,,-71,17:33:22.092,
,,1925,9540,496,532,546,-0.210938,0.425781,0.015625,-47.040001,-22.400000,182.559998,0.448512,-0.065408,0.000000,,0,0,0,0,0,,,,,,,,,-71,17:33:22.093,
,,1926,9560,497,534,546,-0.210938,0.425781,0.015625,-47.040001,-22.400000,182.559998,0.448512,-0.065408,0.000000,,0,0,0,0,0,,,,,,,,,-71,17:33:22.121,
,,1927,9580,495,535,543,-0.210938,0.425781,0.015625,-47.040001,-22.400000,182.559998,0.448512,-0.065408,0.000000,,0,0,0,0,0,,,,,,,,,-71,17:33:22.151,
,,1928,9600,496,536,544,-0.257812,0.285156,0.050781,11.200000,-56.000000,100.800003,0.448512,-0.065408,0.000000,,0,0,0,0,0,,,,,,,,,-71,17:33:22.153,
,,1929,9620,496,538,543,-0.257812,0.285156,0.050781,11.200000,-56.000000,100.800003,0.448512,-0.065408,0.000000,,0,0,0,0,0,,,,,,,,,-71,17:33:22.182,
,,1930,9640,497,540,545,-0.257812,0.285156,0.050781,11.200000,-56.000000,100.800003,0.448512,-0.065408,0.000000,,0,0,0,0,0,,,,,,,,,-71,17:33:22.211,
,,1931,9660,496,540,545,-0.257812,0.285156,0.050781,11.200000,-56.000000,100.800003,0.448512,-0.065408,0.000000,,0,0,0,0,0,,,,,,,,,-71,17:33:22.219,
,,1932,9680,497,543,544,0.410156,0.453125,0.085938,35.840000,-79.519997,-16.799999,0.448512,-0.065408,0.000000,,0,0,0,0,0,,,,,,,,,-65,17:33:22.243,
,,1933,9700,496,544,544,0.410156,0.453125,0.085938,35.840000,-79.519997,-16.799999,0.448512,-0.065408,0.000000,,0,0,0,0,0,,,,,,,,,-65,17:33:22.273,
,,1934,9720,497,543,545,0.410156,0.453125,0.085938,35.840000,-79.519997,-16.799999,0.448512,-0.065408,0.000000,,0,0,0,0,0,,,,,,,,,-65,17:33:22.274,
,,1935,9740,496,545,547,0.410156,0.453125,0.085938,35.840000,-79.519997,-16.799999,0.448512,-0.065408,0.000000,,0,0,0,0,0,,,,,,,,,-65,17:33:22.303,
,,1936,9760,497,548,544,0.261719,0.707031,0.480469,36.959999,2.240000,-90.720001,0.448512,-0.065408,0.000000,,0,0,0,0,0,,,,,,,,,-65,17:33:22.334,
,,1937,9780,498,546,546,0.261719,0.707031,0.480469,36.959999,2.240000,-90.720001,0.448512,-0.065408,0.000000,,0,0,0,0,0,,,,,,,,,-65,17:33:22.335,
,,1938,9800,498,546,545,0.261719,0.707031,0.480469,36.959999,2.240000,-90.720001,0.448512,-0.065408,0.000000,,0,0,0,0,0,,,,,,,,,-65,17:33:22.363,
,,1939,9820,499,547,545,0.261719,0.707031,0.480469,36.959999,2.240000,-90.720001,0.448512,-0.065408,0.000000,,0,0,0,0,0,,,,,,,,,-65,17:33:22.393,
,,1940,9840,498,548,545,0.429688,0.808594,0.414062,26.880001,-40.320000,-113.120003,0.448512,-0.065408,0.000000,,0,0,0,0,0,,,,,,,,,-65,17:33:22.395,
,,1941,9860,498,550,545,0.429688,0.808594,0.414062,26.880001,-40.320000,-113.120003,0.448512,-0.065408,0.000000,,0,0,0,0,0,,,,,,,,,-65,17:33:22.423,
,,1942,9880,497,548,546,0.429688,0.808594,0.414062,26.880001,-40.320000,-113.120003,0.448512,-0.065408,0.000000,,0,0,0,0,0,,,,,,,,,-65,17:33:22.453,
,,1943,9900,498,548,546,0.429688,0.808594,0.414062,26.880001,-40.320000,-113.120003,0.448512,-0.065408,0.000000,,0,0,0,0,0,,,,,,,,,-65,17:33:22.454,
,,1944,9920,497,548,543,0.308594,0.808594,0.398438,30.240000,-23.520000,-122.080002,0.448512,-0.065408,0.000000,,0,0,0,0,0,,,,,,,,,-65,17:33:22.484,
,,1945,9940,497,548,544,0.308594,0.808594,0.398438,30.240000,-23.520000,-122.080002,0.448512,-0.065408,0.000000,,0,0,0,0,0,,,,,,,,,-65,17:33:22.514,
,,1946,9960,497,548,543,0.308594,0.808594,0.398438,30.240000,-23.520000,-122.080002,0.448512,-0.065408,0.000000,,0,0,0,0,0,,,,,,,,,-65,17:33:22.515,
,,1947,9980,500,547,544,0.308594,0.808594,0.398438,30.240000,-23.520000,-122.080002,0.448512,-0.065408,0.000000,,0,0,0,0,0,,,,,,,,,-65,17:33:22.543,
,,1948,10000,497,546,542,0.007812,0.796875,0.441406,48.160000,19.040001,-118.720001,0.448512,-0.065408,0.000000,,0,0,0,0,0,,,,,,,,,-65,17:33:22.574,
,,1949,10020,498,547,544,0.007812,0.796875,0.441406,48.160000,19.040001,-118.720001,0.448512,-0.065408,0.000000,,0,0,0,0,0,,,,,,,,,-65,17:33:22.575,
,,1950,10040,500,546,541,0.007812,0.796875,0.441406,48.160000,19.040001,-118.720001,0.448512,-0.065408,0.000000,,0,0,0,0,0,,,,,,,,,-65,17:33:22.603,
,,1951,10060,497,547,542,0.007812,0.796875,0.441406,48.160000,19.040001,-118.720001,0.682112,-0.056064,-0.112128,,0,0,0,0,0,,,,,,,,,-65,17:33:22.633,
,,1952,10080,496,545,542,-0.027344,1.160156,0.433594,75.040001,10.080000,-117.599998,0.682112,-0.056064,-0.112128,,0,0,0,0,0,,,,,,,,,-65,17:33:22.634,
,,1953,10100,497,546,544,-0.027344,1.160156,0.433594,75.040001,10.080000,-117.599998,0.682112,-0.056064,-0.112128,,0,0,0,0,0,,,,,,,,,-65,17:33:22.663,
,,1954,10120,496,545,542,-0.027344,1.160156,0.433594,75.040001,10.080000,-117.599998,0.682112,-0.056064,-0.112128,,0,0,0,0,0,,,,,,,,,-65,17:33:22.691,
,,1955,10140,497,544,542,0.476562,1.117188,0.179688,53.760002,11.200000,-96.320000,0.682112,-0.056064,-0.112128,,0,0,0,0,0,,,,,,,,,-65,17:33:22.701,
,,1956,10160,497,543,541,0.476562,1.117188,0.179688,53.760002,11.200000,-96.320000,0.682112,-0.056064,-0.112128,,0,0,0,0,0,,,,,,,,,-65,17:33:22.721,
,,1957,10180,496,541,535,0.476562,1.117188,0.179688,53.760002,11.200000,-96.320000,0.682112,-0.056064,-0.112128,,0,0,0,0,0,,,,,,,,,-65,17:33:22.751,
,,1958,10200,496,540,525,0.476562,1.117188,0.179688,53.760002,11.200000,-96.320000,0.682112,-0.056064,-0.112128,,0,0,0,0,0,,,,,,,,,-65,17:33:22.752,
,,1959,10220,497,538,512,-0.058594,0.476562,0.203125,10.080000,66.080002,-8.960000,0.682112,-0.056064,-0.112128,,0,0,0,0,0,,,,,,,,,-65,17:33:22.783,
,,1960,10240,495,536,500,-0.058594,0.476562,0.203125,10.080000,66.080002,-8.960000,0.682112,-0.056064,-0.112128,,0,0,0,0,0,,,,,,,,,-65,17:33:22.813,
,,1961,10260,495,527,488,-0.058594,0.476562,0.203125,10.080000,66.080002,-8.960000,0.682112,-0.056064,-0.112128,,0,0,0,0,0,,,,,,,,,-65,17:33:22.814,
,,1962,10280,492,512,478,-0.058594,0.476562,0.203125,10.080000,66.080002,-8.960000,0.682112,-0.056064,-0.112128,,0,0,0,0,0,,,,,,,,,-65,17:33:22.843,
,,1963,10300,491,495,469,0.214844,0.683594,0.199219,-3.360000,3.360000,15.680000,0.682112,-0.056064,-0.112128,,0,0,0,0,0,,,,,,,,,-65,17:33:22.874,
,,1964,10320,489,474,462,0.214844,0.683594,0.199219,-3.360000,3.360000,15.680000,0.682112,-0.056064,-0.112128,,0,0,0,0,0,,,,,,,,,-65,17:33:22.875,
,,1965,10340,487,453,461,0.214844,0.683594,0.199219,-3.360000,3.360000,15.680000,0.682112,-0.056064,-0.112128,,0,0,0,0,0,,,,,,,,,-65,17:33:22.903,
,,1966,10360,488,434,460,0.105469,0.914062,0.089844,-6.720000,-11.200000,12.320000,0.682112,-0.056064,-0.112128,,0,0,0,0,0,,,,,,,,,-65,17:33:22.933,
,,1967,10380,487,416,463,0.105469,0.914062,0.089844,-6.720000,-11.200000,12.320000,0.682112,-0.056064,-0.112128,,0,0,0,0,0,,,,,,,,,-65,17:33:22.934,
,,1968,10400,485,402,466,0.105469,0.914062,0.089844,-6.720000,-11.200000,12.320000,0.682112,-0.056064,-0.112128,,0,0,0,0,0,,,,,,,,,-65,17:33:22.963,
,,1969,10420,484,393,468,0.105469,0.914062,0.089844,-6.720000,-11.200000,12.320000,0.682112,-0.056064,-0.112128,,0,0,0,0,0,,,,,,,,,-65,17:33:22.991,
,,1970,10440,484,387,469,0.000000,0.816406,-0.101562,-2.240000,-16.799999,10.080000,0.682112,-0.056064,-0.112128,,0,0,0,0,0,,,,,,,,,-65,17:33:23.001,
,,1971,10460,483,385,469,0.000000,0.816406,-0.101562,-2.240000,-16.799999,10.080000,0.682112,-0.056064,-0.112128,,0,0,0,0,0,,,,,,,,,-65,17:33:23.023,
,,1972,10480,482,384,467,0.000000,0.816406,-0.101562,-2.240000,-16.799999,10.080000,0.682112,-0.056064,-0.112128,,0,0,0,0,0,,,,,,,,,-65,17:33:23.024,
,,1973,10500,485,384,469,0.000000,0.816406,-0.101562,-2.240000,-16.799999,10.080000,0.682112,-0.056064,-0.112128,,0,0,0,0,0,,,,,,,,,-65,17:33:23.051,
,,1974,10520,481,378,470,0.093750,0.726562,0.000000,-6.720000,-7.840000,0.000000,0.682112,-0.056064,-0.112128,,0,0,0,0,0,,,,,,,,,-65,17:33:23.083,
,,1975,10540,482,374,471,0.093750,0.726562,0.000000,-6.720000,-7.840000,0.000000,0.682112,-0.056064,-0.112128,,0,0,0,0,0,,,,,,,,,-65,17:33:23.085,
,,1976,10560,479,368,476,0.093750,0.726562,0.000000,-6.720000,-7.840000,0.000000,0.682112,-0.056064,-0.112128,,0,0,0,0,0,,,,,,,,,-65,17:33:23.113,
,,1977,10580,479,361,477,0.093750,0.726562,0.000000,-6.720000,-7.840000,0.000000,0.682112,-0.056064,-0.112128,,0,0,0,0,0,,,,,,,,,-65,17:33:23.143,
,,1978,10600,477,356,477,0.109375,0.792969,-0.062500,-6.720000,-13.440001,3.360000,0.682112,-0.056064,-0.112128,,0,0,0,0,0,,,,,,,,,-65,17:33:23.143,
,,1979,10620,478,356,478,0.109375,0.792969,-0.062500,-6.720000,-13.440001,3.360000,0.682112,-0.056064,-0.112128,,0,0,0,0,0,,,,,,,,,-65,17:33:23.171,
,,1980,10640,479,355,478,0.109375,0.792969,-0.062500,-6.720000,-13.440001,3.360000,0.682112,-0.056064,-0.112128,,0,0,0,0,0,,,,,,,,,-65,17:33:23.201,
,,1981,10660,478,354,474,0.109375,0.792969,-0.062500,-6.720000,-13.440001,3.360000,0.682112,-0.056064,-0.112128,,0,0,0,0,0,,,,,,,,,-65,17:33:23.202,
,,1982,10680,478,353,473,0.109375,0.875000,-0.039062,-3.360000,-8.960000,-12.320000,0.682112,-0.056064,-0.112128,,0,0,0,0,0,,,,,,,,,-65,17:33:23.231,
,,1983,10700,479,353,476,0.109375,0.875000,-0.039062,-3.360000,-8.960000,-12.320000,0.682112,-0.056064,-0.112128,,0,0,0,0,0,,,,,,,,,-65,17:33:23.261,
,,1984,10720,478,350,478,0.109375,0.875000,-0.039062,-3.360000,-8.960000,-12.320000,0.682112,-0.056064,-0.112128,,0,0,0,0,0,,,,,,,,,-65,17:33:23.270,
,,1985,10740,475,346,480,0.109375,0.875000,-0.039062,-3.360000,-8.960000,-12.320000,0.682112,-0.056064,-0.112128,,0,0,0,0,0,,,,,,,,,-65,17:33:23.291,
,,1986,10760,476,340,481,0.023438,0.656250,0.078125,-12.320000,-6.720000,-10.080000,0.682112,-0.056064,-0.112128,,0,0,0,0,0,,,,,,,,,-65,17:33:23.322,
,,1987,10780,472,336,482,0.023438,0.656250,0.078125,-12.320000,-6.720000,-10.080000,0.682112,-0.056064,-0.112128,,0,0,0,0,0,,,,,,,,,-65,17:33:23.323,
,,1988,10800,472,332,481,0.023438,0.656250,0.078125,-12.320000,-6.720000,-10.080000,0.682112,-0.056064,-0.112128,,0,0,0,0,0,,,,,,,,,-65,17:33:23.383,
,,1989,10820,473,331,479,0.023438,0.656250,0.078125,-12.320000,-6.720000,-10.080000,0.682112,-0.056064,-0.112128,,0,0,0,0,0,,,,,,,,,-65,17:33:23.384,
,,1990,10840,471,330,479,-0.113281,0.718750,-0.031250,-13.440001,-10.080000,-4.480000,0.682112,-0.056064,-0.112128,,0,0,0,0,0,,,,,,,,,-65,17:33:23.385,
,,1991,10860,470,330,477,-0.113281,0.718750,-0.031250,-13.440001,-10.080000,-4.480000,0.682112,-0.056064,-0.112128,,0,0,0,0,0,,,,,,,,,-65,17:33:23.413,
,,1992,10880,471,330,477,-0.113281,0.718750,-0.031250,-13.440001,-10.080000,-4.480000,0.682112,-0.056064,-0.112128,,0,0,0,0,0,,,,,,,,,-65,17:33:23.442,
,,1993,10900,471,330,476,0.000000,0.792969,0.078125,-8.960000,-4.480000,-11.200000,0.682112,-0.056064,-0.112128,,0,0,0,0,0,,,,,,,,,-65,17:33:23.443,
,,1994,10920,469,332,476,0.000000,0.792969,0.078125,-8.960000,-4.480000,-11.200000,0.682112,-0.056064,-0.112128,,0,0,0,0,0,,,,,,,,,-65,17:33:23.473,
,,1995,10940,473,330,474,0.000000,0.792969,0.078125,-8.960000,-4.480000,-11.200000,0.682112,-0.056064,-0.112128,,0,0,0,0,0,,,,,,,,,-65,17:33:23.503,
,,1996,10960,473,331,474,0.000000,0.792969,0.078125,-8.960000,-4.480000,-11.200000,0.682112,-0.056064,-0.112128,,0,0,0,0,0,,,,,,,,,-65,17:33:23.503,
,,1997,10980,472,328,473,0.019531,0.667969,-0.066406,-14.560000,0.000000,-8.960000,0.682112,-0.056064,-0.112128,,0,0,0,0,0,,,,,,,,,-65,17:33:23.531,
,,1998,11000,471,327,471,0.019531,0.667969,-0.066406,-14.560000,0.000000,-8.960000,0.682112,-0.056064,-0.112128,,0,0,0,0,0,,,,,,,,,-65,17:33:23.561,
,,1999,11020,470,328,471,0.019531,0.667969,-0.066406,-14.560000,0.000000,-8.960000,0.682112,-0.056064,-0.112128,,0,0,0,0,0,,,,,,,,,-65,17:33:23.562,
,,2000,11040,471,327,472,0.019531,0.667969,-0.066406,-14.560000,0.000000,-8.960000,0.682112,-0.056064,-0.112128,,0,0,0,0,0,,,,,,,,,-65,17:33:23.591,
,,2001,11060,470,328,469,0.039062,0.667969,0.105469,-25.760000,1.120000,-11.200000,0.682112,-0.056064,-0.112128,,0,0,0,0,0,,,,,,,,,-65,17:33:23.621,
,,2002,11080,472,332,468,0.039062,0.667969,0.105469,-25.760000,1.120000,-11.200000,0.682112,-0.056064,-0.112128,,0,0,0,0,0,,,,,,,,,-65,17:33:23.622,
,,2003,11100,472,336,466,0.039062,0.667969,0.105469,-25.760000,1.120000,-11.200000,0.682112,-0.056064,-0.112128,,0,0,0,0,0,,,,,,,,,-65,17:33:23.651,
,,2004,11120,472,342,467,0.039062,0.667969,0.105469,-25.760000,1.120000,-11.200000,0.682112,-0.056064,-0.112128,,0,0,0,0,0,,,,,,,,,-65,17:33:23.681,
,,2005,11140,473,349,466,0.246094,0.347656,0.257812,-29.120001,3.360000,-20.160000,0.682112,-0.056064,-0.112128,,0,0,0,0,0,,,,,,,,,-65,17:33:23.691,
,,2006,11160,473,356,468,0.246094,0.347656,0.257812,-29.120001,3.360000,-20.160000,0.682112,-0.056064,-0.112128,,0,0,0,0,0,,,,,,,,,-65,17:33:23.713,
,,2007,11180,472,368,475,0.246094,0.347656,0.257812,-29.120001,3.360000,-20.160000,0.682112,-0.056064,-0.112128,,0,0,0,0,0,,,,,,,,,-65,17:33:23.743,
,,2008,11200,473,382,490,0.246094,0.347656,0.257812,-29.120001,3.360000,-20.160000,0.682112,-0.056064,-0.112128,,0,0,0,0,0,,,,,,,,,-65,17:33:23.744,
,,2009,11220,474,404,504,0.218750,0.804688,0.199219,-33.599998,4.480000,-14.560000,0.682112,-0.056064,-0.112128,,0,0,0,0,0,,,,,,,,,-65,17:33:23.773,
,,2010,11240,476,432,515,0.218750,0.804688,0.199219,-33.599998,4.480000,-14.560000,0.682112,-0.056064,-0.112128,,0,0,0,0,0,,,,,,,,,-65,17:33:23.803,
,,2011,11260,481,461,522,0.218750,0.804688,0.199219,-33.599998,4.480000,-14.560000,0.682112,-0.056064,-0.112128,,0,0,0,0,0,,,,,,,,,-65,17:33:23.804,
,,2012,11280,485,488,527,0.218750,0.804688,0.199219,-33.599998,4.480000,-14.560000,0.682112,-0.056064,-0.112128,,0,0,0,0,0,,,,,,,,,-65,17:33:23.843,
,,2013,11300,492,511,530,0.367188,1.648438,-0.312500,-53.760002,15.680000,0.000000,0.682112,-0.056064,-0.112128,,0,0,0,0,0,,,,,,,,,-65,17:33:23.873,
,,2014,11320,497,523,531,0.367188,1.648438,-0.312500,-53.760002,15.680000,0.000000,0.682112,-0.056064,-0.112128,,0,0,0,0,0,,,,,,,,,-65,17:33:23.875,
,,2015,11340,500,533,530,0.367188,1.648438,-0.312500,-53.760002,15.680000,0.000000,0.682112,-0.056064,-0.112128,,0,0,0,0,0,,,,,,,,,-65,17:33:23.892,
,,2016,11360,500,537,531,-0.347656,0.656250,-0.265625,-67.199997,13.440001,63.840000,0.682112,-0.056064,-0.112128,,0,0,0,0,0,,,,,,,,,-65,17:33:23.924,
,,2017,11380,502,542,531,-0.347656,0.656250,-0.265625,-67.199997,13.440001,63.840000,0.682112,-0.056064,-0.112128,,0,0,0,0,0,,,,,,,,,-65,17:33:23.925,
,,2018,11400,501,544,530,-0.347656,0.656250,-0.265625,-67.199997,13.440001,63.840000,0.682112,-0.056064,-0.112128,,0,0,0,0,0,,,,,,,,,-65,17:33:23.954,
,,2019,11420,502,545,531,-0.347656,0.656250,-0.265625,-67.199997,13.440001,63.840000,0.682112,-0.056064,-0.112128,,0,0,0,0,0,,,,,,,,,-65,17:33:23.984,
,,2020,11440,500,545,530,-0.101562,0.847656,-0.097656,24.639999,-66.080002,24.639999,0.682112,-0.056064,-0.112128,,0,0,0,0,0,,,,,,,,,-65,17:33:24.014,
,,2021,11460,501,547,530,-0.101562,0.847656,-0.097656,24.639999,-66.080002,24.639999,0.682112,-0.056064,-0.112128,,0,0,0,0,0,,,,,,,,,-65,17:33:24.015,
,,2022,11480,501,547,530,-0.101562,0.847656,-0.097656,24.639999,-66.080002,24.639999,0.682112,-0.056064,-0.112128,,0,0,0,0,0,,,,,,,,,-65,17:33:24.042,
,,2023,11500,500,545,530,-0.101562,0.847656,-0.097656,24.639999,-66.080002,24.639999,0.682112,-0.056064,-0.112128,,0,0,0,0,0,,,,,,,,,-65,17:33:24.073,
,,2024,11520,501,545,530,0.062500,1.046875,0.574219,48.160000,-5.600000,-21.280001,0.682112,-0.056064,-0.112128,,0,0,0,0,0,,,,,,,,,-65,17:33:24.074,
,,2025,11540,502,547,531,0.062500,1.046875,0.574219,48.160000,-5.600000,-21.280001,0.682112,-0.056064,-0.112128,,0,0,0,0,0,,,,,,,,,-65,17:33:24.103,
,,2026,11560,500,546,528,0.062500,1.046875,0.574219,48.160000,-5.600000,-21.280001,0.682112,-0.056064,-0.112128,,0,0,0,0,0,,,,,,,,,-65,17:33:24.133,
,,2027,11580,501,547,529,0.003906,0.640625,0.402344,28.000000,-22.400000,-11.200000,0.682112,-0.056064,-0.112128,,0,0,0,0,0,,,,,,,,,-65,17:33:24.135,
,,2028,11600,501,546,529,0.003906,0.640625,0.402344,28.000000,-22.400000,-11.200000,0.682112,-0.056064,-0.112128,,0,0,0,0,0,,,,,,,,,-65,17:33:24.163,
,,2029,11620,500,544,529,0.003906,0.640625,0.402344,28.000000,-22.400000,-11.200000,0.682112,-0.056064,-0.112128,,0,0,0,0,0,,,,,,,,,-65,17:33:24.193,
,,2030,11640,500,545,530,0.003906,0.640625,0.402344,28.000000,-22.400000,-11.200000,0.682112,-0.056064,-0.112128,,0,0,0,0,0,,,,,,,,,-65,17:33:24.194,
,,2031,11660,501,544,529,-0.273438,0.339844,0.351562,31.360001,-4.480000,-35.840000,0.551296,-0.028032,-0.074752,,0,0,0,0,0,,,,,,,,,-65,17:33:24.223,
,,2032,11680,500,544,529,-0.273438,0.339844,0.351562,31.360001,-4.480000,-35.840000,0.551296,-0.028032,-0.074752,,0,0,0,0,0,,,,,,,,,-65,17:33:24.224,
,,2033,11700,500,544,530,-0.273438,0.339844,0.351562,31.360001,-4.480000,-35.840000,0.551296,-0.028032,-0.074752,,0,0,0,0,0,,,,,,,,,-65,17:33:24.253,
,,2034,11720,499,542,522,-0.273438,0.339844,0.351562,31.360001,-4.480000,-35.840000,0.551296,-0.028032,-0.074752,,0,0,0,0,0,,,,,,,,,-65,17:33:24.283,
,,2035,11740,499,532,503,0.195312,0.667969,0.230469,61.599998,-42.560001,-63.840000,0.551296,-0.028032,-0.074752,,0,0,0,0,0,,,,,,,,,-65,17:33:24.284,
,,2036,11760,495,515,495,0.195312,0.667969,0.230469,61.599998,-42.560001,-63.840000,0.551296,-0.028032,-0.074752,,0,0,0,0,0,,,,,,,,,-65,17:33:24.313,
,,2037,11780,492,493,490,0.195312,0.667969,0.230469,61.599998,-42.560001,-63.840000,0.551296,-0.028032,-0.074752,,0,0,0,0,0,,,,,,,,,-65,17:33:24.343,
,,2038,11800,490,464,483,0.195312,0.667969,0.230469,61.599998,-42.560001,-63.840000,0.551296,-0.028032,-0.074752,,0,0,0,0,0,,,,,,,,,-65,17:33:24.343,
,,2039,11820,488,442,478,-0.152344,0.507812,0.062500,-1.120000,-25.760000,4.480000,0.551296,-0.028032,-0.074752,,0,0,0,0,0,,,,,,,,,-65,17:33:24.373,
,,2040,11840,486,429,474,-0.152344,0.507812,0.062500,-1.120000,-25.760000,4.480000,0.551296,-0.028032,-0.074752,,0,0,0,0,0,,,,,,,,,-65,17:33:24.403,
,,2041,11860,486,424,471,-0.152344,0.507812,0.062500,-1.120000,-25.760000,4.480000,0.551296,-0.028032,-0.074752,,0,0,0,0,0,,,,,,,,,-65,17:33:24.433,
,,2042,11880,487,424,468,-0.152344,0.507812,0.062500,-1.120000,-25.760000,4.480000,0.551296,-0.028032,-0.074752,,0,0,0,0,0,,,,,,,,,-65,17:33:24.434,
,,2043,11900,485,427,467,0.085938,0.566406,-0.039062,1.120000,-19.040001,2.240000,0.551296,-0.028032,-0.074752,,0,0,0,0,0,,,,,,,,,-65,17:33:24.463,
,,2044,11920,487,429,466,0.085938,0.566406,-0.039062,1.120000,-19.040001,2.240000,0.551296,-0.028032,-0.074752,,0,0,0,0,0,,,,,,,,,-65,17:33:24.463,
,,2045,11940,488,431,465,0.085938,0.566406,-0.039062,1.120000,-19.040001,2.240000,0.551296,-0.028032,-0.074752,,0,0,0,0,0,,,,,,,,,-65,17:33:24.493,
,,2046,11960,489,435,463,0.085938,0.566406,-0.039062,1.120000,-19.040001,2.240000,0.551296,-0.028032,-0.074752,,0,0,0,0,0,,,,,,,,,-65,17:33:24.522,
,,2047,11980,491,441,463,0.230469,0.695312,0.093750,0.000000,-11.200000,-10.080000,0.551296,-0.028032,-0.074752,,0,0,0,0,0,,,,,,,,,-65,17:33:24.523,
,,2048,12000,494,449,461,0.230469,0.695312,0.093750,0.000000,-11.200000,-10.080000,0.551296,-0.028032,-0.074752,,0,0,0,0,0,,,,,,,,,-65,17:33:24.554,
,,2049,12020,495,460,462,0.230469,0.695312,0.093750,0.000000,-11.200000,-10.080000,0.551296,-0.028032,-0.074752,,0,0,0,0,0,,,,,,,,,-65,17:33:24.584,
,,2050,12040,498,470,462,0.230469,0.695312,0.093750,0.000000,-11.200000,-10.080000,0.551296,-0.028032,-0.074752,,0,0,0,0,0,,,,,,,,,-65,17:33:24.584,
,,2051,12060,500,475,463,0.265625,0.652344,0.226562,-14.560000,1.120000,-8.960000,0.551296,-0.028032,-0.074752,,0,0,0,0,0,,,,,,,,,-65,17:33:24.613,
,,2052,12080,502,477,462,0.265625,0.652344,0.226562,-14.560000,1.120000,-8.960000,0.551296,-0.028032,-0.074752,,0,0,0,0,0,,,,,,,,,-65,17:33:24.641,
,,2053,12100,504,479,463,0.265625,0.652344,0.226562,-14.560000,1.120000,-8.960000,0.551296,-0.028032,-0.074752,,0,0,0,0,0,,,,,,,,,-65,17:33:24.642,
,,2054,12120,504,477,463,0.265625,0.652344,0.226562,-14.560000,1.120000,-8.960000,0.551296,-0.028032,-0.074752,,0,0,0,0,0,,,,,,,,,-65,17:33:24.671,
,,2055,12140,506,476,463,0.089844,0.664062,0.035156,-23.520000,6.720000,-12.320000,0.551296,-0.028032,-0.074752,,0,0,0,0,0,,,,,,,,,-65,17:33:24.702,
,,2056,12160,505,474,463,0.089844,0.664062,0.035156,-23.520000,6.720000,-12.320000,0.551296,-0.028032,-0.074752,,0,0,0,0,0,,,,,,,,,-65,17:33:24.712,
,,2057,12180,506,472,464,0.089844,0.664062,0.035156,-23.520000,6.720000,-12.320000,0.551296,-0.028032,-0.074752,,0,0,0,0,0,,,,,,,,,-65,17:33:24.733,
,,2058,12200,506,471,465,-0.187500,0.765625,-0.042969,-22.400000,6.720000,-16.799999,0.551296,-0.028032,-0.074752,,0,0,0,0,0,,,,,,,,,-65,17:33:24.763,
,,2059,12220,507,470,465,-0.187500,0.765625,-0.042969,-22.400000,6.720000,-16.799999,0.551296,-0.028032,-0.074752,,0,0,0,0,0,,,,,,,,,-65,17:33:24.764,
,,2060,12240,507,471,466,-0.187500,0.765625,-0.042969,-22.400000,6.720000,-16.799999,0.551296,-0.028032,-0.074752,,0,0,0,0,0,,,,,,,,,-65,17:33:24.793,
,,2061,12260,506,474,466,-0.187500,0.765625,-0.042969,-22.400000,6.720000,-16.799999,0.551296,-0.028032,-0.074752,,0,0,0,0,0,,,,,,,,,-65,17:33:24.821,
,,2062,12280,507,477,468,0.066406,0.753906,0.234375,-15.680000,8.960000,-15.680000,0.551296,-0.028032,-0.074752,,0,0,0,0,0,,,,,,,,,-65,17:33:24.822,
,,2063,12300,508,478,470,0.066406,0.753906,0.234375,-15.680000,8.960000,-15.680000,0.551296,-0.028032,-0.074752,,0,0,0,0,0,,,,,,,,,-65,17:33:24.853,
,,2064,12320,507,479,472,0.066406,0.753906,0.234375,-15.680000,8.960000,-15.680000,0.551296,-0.028032,-0.074752,,0,0,0,0,0,,,,,,,,,-65,17:33:24.884,
,,2065,12340,506,481,475,0.066406,0.753906,0.234375,-15.680000,8.960000,-15.680000,0.551296,-0.028032,-0.074752,,0,0,0,0,0,,,,,,,,,-65,17:33:24.885,
,,2066,12360,507,480,481,0.031250,0.703125,0.402344,-14.560000,21.280001,-8.960000,0.551296,-0.028032,-0.074752,,0,0,0,0,0,,,,,,,,,-65,17:33:24.913,
,,2067,12380,506,479,486,0.031250,0.703125,0.402344,-14.560000,21.280001,-8.960000,0.551296,-0.028032,-0.074752,,0,0,0,0,0,,,,,,,,,-65,17:33:24.941,
,,2068,12400,507,477,490,0.031250,0.703125,0.402344,-14.560000,21.280001,-8.960000,0.551296,-0.028032,-0.074752,,0,0,0,0,0,,,,,,,,,-65,17:33:24.943,
,,2069,12420,507,474,493,0.031250,0.703125,0.402344,-14.560000,21.280001,-8.960000,0.551296,-0.028032,-0.074752,,0,0,0,0,0,,,,,,,,,-65,17:33:24.973,
,,2070,12440,506,471,497,0.089844,0.597656,0.105469,-17.920000,-6.720000,-7.840000,0.551296,-0.028032,-0.074752,,0,0,0,0,0,,,,,,,,,-65,17:33:25.003,
,,2071,12460,504,465,500,0.089844,0.597656,0.105469,-17.920000,-6.720000,-7.840000,0.551296,-0.028032,-0.074752,,0,0,0,0,0,,,,,,,,,-65,17:33:25.004,
,,2072,12480,504,463,503,0.089844,0.597656,0.105469,-17.920000,-6.720000,-7.840000,0.551296,-0.028032,-0.074752,,0,0,0,0,0,,,,,,,,,-65,17:33:25.033,
,,2073,12500,502,455,506,-0.222656,0.761719,0.144531,-19.040001,-14.560000,-12.320000,0.551296,-0.028032,-0.074752,,0,0,0,0,0,,,,,,,,,-65,17:33:25.061,
,,2074,12520,502,454,507,-0.222656,0.761719,0.144531,-19.040001,-14.560000,-12.320000,0.551296,-0.028032,-0.074752,,0,0,0,0,0,,,,,,,,,-65,17:33:25.094,
,,2075,12540,502,449,510,-0.222656,0.761719,0.144531,-19.040001,-14.560000,-12.320000,0.551296,-0.028032,-0.074752,,0,0,0,0,0,,,,,,,,,-65,17:33:25.095,
,,2076,12560,500,448,512,-0.222656,0.761719,0.144531,-19.040001,-14.560000,-12.320000,0.551296,-0.028032,-0.074752,,0,0,0,0,0,,,,,,,,,-65,17:33:25.123,
,,2077,12580,500,446,512,0.031250,0.515625,0.179688,-11.200000,-15.680000,-5.600000,0.551296,-0.028032,-0.074752,,0,0,0,0,0,,,,,,,,,-65,17:33:25.154,
,,2078,12600,500,444,511,0.031250,0.515625,0.179688,-11.200000,-15.680000,-5.600000,0.551296,-0.028032,-0.074752,,0,0,0,0,0,,,,,,,,,-65,17:33:25.155,
,,2079,12620,500,442,511,0.031250,0.515625,0.179688,-11.200000,-15.680000,-5.600000,0.551296,-0.028032,-0.074752,,0,0,0,0,0,,,,,,,,,-65,17:33:25.183,
,,2080,12640,500,444,511,0.031250,0.515625,0.179688,-11.200000,-15.680000,-5.600000,0.551296,-0.028032,-0.074752,,0,0,0,0,0,,,,,,,,,-65,17:33:25.184,
,,2081,12660,498,441,511,0.027344,0.503906,0.167969,-11.200000,-13.440001,-7.840000,0.551296,-0.028032,-0.074752,,0,0,0,0,0,,,,,,,,,-65,17:33:25.213,
,,2082,12680,497,439,511,0.027344,0.503906,0.167969,-11.200000,-13.440001,-7.840000,0.551296,-0.028032,-0.074752,,0,0,0,0,0,,,,,,,,,-66,17:33:25.243,
,,2083,12700,496,440,508,0.027344,0.503906,0.167969,-11.200000,-13.440001,-7.840000,0.551296,-0.028032,-0.074752,,0,0,0,0,0,,,,,,,,,-66,17:33:25.244,
,,2084,12720,497,438,510,0.027344,0.503906,0.167969,-11.200000,-13.440001,-7.840000,0.551296,-0.028032,-0.074752,,0,0,0,0,0,,,,,,,,,-66,17:33:25.273,
,,2085,12740,496,437,508,-0.023438,0.570312,0.308594,-12.320000,-10.080000,-13.440001,0.551296,-0.028032,-0.074752,,0,0,0,0,0,,,,,,,,,-66,17:33:25.301,
,,2086,12760,496,436,508,-0.023438,0.570312,0.308594,-12.320000,-10.080000,-13.440001,0.551296,-0.028032,-0.074752,,0,0,0,0,0,,,,,,,,,-66,17:33:25.303,
,,2087,12780,497,436,508,-0.023438,0.570312,0.308594,-12.320000,-10.080000,-13.440001,0.551296,-0.028032,-0.074752,,0,0,0,0,0,,,,,,,,,-66,17:33:25.333,
,,2088,12800,495,436,510,-0.023438,0.570312,0.308594,-12.320000,-10.080000,-13.440001,0.551296,-0.028032,-0.074752,,0,0,0,0,0,,,,,,,,,-66,17:33:25.363,
,,2089,12820,495,433,508,-0.039062,0.746094,0.343750,-4.480000,-14.560000,2.240000,0.551296,-0.028032,-0.074752,,0,0,0,0,0,,,,,,,,,-66,17:33:25.364,
,,2090,12840,494,429,509,-0.039062,0.746094,0.343750,-4.480000,-14.560000,2.240000,0.551296,-0.028032,-0.074752,,0,0,0,0,0,,,,,,,,,-66,17:33:25.393,
,,2091,12860,494,426,510,-0.039062,0.746094,0.343750,-4.480000,-14.560000,2.240000,0.551296,-0.028032,-0.074752,,0,0,0,0,0,,,,,,,,,-66,17:33:25.423,
,,2092,12880,492,422,510,-0.039062,0.746094,0.343750,-4.480000,-14.560000,2.240000,0.551296,-0.028032,-0.074752,,0,0,0,0,0,,,,,,,,,-66,17:33:25.424,
,,2093,12900,492,415,512,-0.199219,0.554688,0.101562,-2.240000,-23.520000,2.240000,0.551296,-0.028032,-0.074752,,0,0,0,0,0,,,,,,,,,-66,17:33:25.454,
,,2094,12920,491,409,511,-0.199219,0.554688,0.101562,-2.240000,-23.520000,2.240000,0.551296,-0.028032,-0.074752,,0,0,0,0,0,,,,,,,,,-66,17:33:25.483,
,,2095,12940,491,402,511,-0.199219,0.554688,0.101562,-2.240000,-23.520000,2.240000,0.551296,-0.028032,-0.074752,,0,0,0,0,0,,,,,,,,,-66,17:33:25.484,
,,2096,12960,490,398,511,0.011719,0.792969,0.203125,-6.720000,-7.840000,-1.120000,0.551296,-0.028032,-0.074752,,0,0,0,0,0,,,,,,,,,-66,17:33:25.513,
,,2097,12980,488,393,510,0.011719,0.792969,0.203125,-6.720000,-7.840000,-1.120000,0.551296,-0.028032,-0.074752,,0,0,0,0,0,,,,,,,,,-66,17:33:25.543,
,,2098,13000,487,389,512,0.011719,0.792969,0.203125,-6.720000,-7.840000,-1.120000,0.551296,-0.028032,-0.074752,,0,0,0,0,0,,,,,,,,,-66,17:33:25.544,
,,2099,13020,487,385,512,0.011719,0.792969,0.203125,-6.720000,-7.840000,-1.120000,0.551296,-0.028032,-0.074752,,0,0,0,0,0,,,,,,,,,-66,17:33:25.573,
,,2100,13040,487,382,512,0.050781,0.406250,0.250000,-6.720000,0.000000,-2.240000,0.551296,-0.028032,-0.074752,,0,0,0,0,0,,,,,,,,,-66,17:33:25.603,
,,2101,13060,488,379,511,0.050781,0.406250,0.250000,-6.720000,0.000000,-2.240000,0.551296,-0.028032,-0.074752,,0,0,0,0,0,,,,,,,,,-66,17:33:25.604,
,,2102,13080,488,376,510,0.050781,0.406250,0.250000,-6.720000,0.000000,-2.240000,0.551296,-0.028032,-0.074752,,0,0,0,0,0,,,,,,,,,-66,17:33:25.633,
,,2103,13100,487,378,511,0.050781,0.406250,0.250000,-6.720000,0.000000,-2.240000,0.551296,-0.028032,-0.074752,,0,0,0,0,0,,,,,,,,,-66,17:33:25.663,
,,2104,13120,486,378,512,-0.027344,0.589844,0.312500,-7.840000,7.840000,-2.240000,0.551296,-0.028032,-0.074752,,0,0,0,0,0,,,,,,,,,-66,17:33:25.664,
,,2105,13140,486,378,512,-0.027344,0.589844,0.312500,-7.840000,7.840000,-2.240000,0.551296,-0.028032,-0.074752,,0,0,0,0,0,,,,,,,,,-66,17:33:25.693,
,,2106,13160,486,377,512,-0.027344,0.589844,0.312500,-7.840000,7.840000,-2.240000,0.551296,-0.028032,-0.074752,,0,0,0,0,0,,,,,,,,,-66,17:33:25.723,
,,2107,13180,488,380,512,-0.027344,0.589844,0.312500,-7.840000,7.840000,-2.240000,0.551296,-0.028032,-0.074752,,0,0,0,0,0,,,,,,,,,-66,17:33:25.724,
,,2108,13200,486,381,512,-0.058594,0.507812,0.253906,-7.840000,5.600000,-4.480000,0.551296,-0.028032,-0.074752,,0,0,0,0,0,,,,,,,,,-66,17:33:25.753,
,,2109,13220,487,384,512,-0.058594,0.507812,0.253906,-7.840000,5.600000,-4.480000,0.551296,-0.028032,-0.074752,,0,0,0,0,0,,,,,,,,,-66,17:33:25.784,
,,2110,13240,487,385,512,-0.058594,0.507812,0.253906,-7.840000,5.600000,-4.480000,0.551296,-0.028032,-0.074752,,0,0,0,0,0,,,,,,,,,-66,17:33:25.785,
,,2111,13260,488,385,512,-0.058594,0.507812,0.253906,-7.840000,5.600000,-4.480000,0.560640,-0.046720,-0.224256,,0,0,0,0,0,,,,,,,,,-66,17:33:25.813,
,,2112,13280,487,390,513,0.007812,0.605469,0.300781,-5.600000,4.480000,-4.480000,0.560640,-0.046720,-0.224256,,0,0,0,0,0,,,,,,,,,-66,17:33:25.843,
,,2113,13300,486,393,515,0.007812,0.605469,0.300781,-5.600000,4.480000,-4.480000,0.560640,-0.046720,-0.224256,,0,0,0,0,0,,,,,,,,,-66,17:33:25.844,
,,2114,13320,486,391,515,0.007812,0.605469,0.300781,-5.600000,4.480000,-4.480000,0.560640,-0.046720,-0.224256,,0,0,0,0,0,,,,,,,,,-66,17:33:25.873,
,,2115,13340,486,390,515,0.007812,0.605469,0.300781,-5.600000,4.480000,-4.480000,0.560640,-0.046720,-0.224256,,0,0,0,0,0,,,,,,,,,-66,17:33:25.903,
,,2116,13360,485,389,515,-0.125000,0.496094,0.339844,-2.240000,8.960000,2.240000,0.560640,-0.046720,-0.224256,,0,0,0,0,0,,,,,,,,,-66,17:33:25.904,
,,2117,13380,487,387,515,-0.125000,0.496094,0.339844,-2.240000,8.960000,2.240000,0.560640,-0.046720,-0.224256,,0,0,0,0,0,,,,,,,,,-66,17:33:25.934,
,,2118,13400,486,390,516,-0.125000,0.496094,0.339844,-2.240000,8.960000,2.240000,0.560640,-0.046720,-0.224256,,0,0,0,0,0,,,,,,,,,-66,17:33:25.964,
,,2119,13420,487,387,514,-0.039062,0.726562,0.296875,-2.240000,-3.360000,1.120000,0.560640,-0.046720,-0.224256,,0,0,0,0,0,,,,,,,,,-66,17:33:25.965,
,,2120,13440,485,385,514,-0.039062,0.726562,0.296875,-2.240000,-3.360000,1.120000,0.560640,-0.046720,-0.224256,,0,0,0,0,0,,,,,,,,,-66,17:33:25.993,
,,2121,13460,485,388,515,-0.039062,0.726562,0.296875,-2.240000,-3.360000,1.120000,0.560640,-0.046720,-0.224256,,0,0,0,0,0,,,,,,,,,-66,17:33:26.023,
,,2122,13480,485,386,515,-0.039062,0.726562,0.296875,-2.240000,-3.360000,1.120000,0.560640,-0.046720,-0.224256,,0,0,0,0,0,,,,,,,,,-66,17:33:26.024,
,,2123,13500,485,386,517,0.050781,0.476562,0.117188,-3.360000,-8.960000,-2.240000,0.560640,-0.046720,-0.224256,,0,0,0,0,0,,,,,,,,,-66,17:33:26.052,
,,2124,13520,485,388,516,0.050781,0.476562,0.117188,-3.360000,-8.960000,-2.240000,0.560640,-0.046720,-0.224256,,0,0,0,0,0,,,,,,,,,-66,17:33:26.083,
,,2125,13540,486,387,516,0.050781,0.476562,0.117188,-3.360000,-8.960000,-2.240000,0.560640,-0.046720,-0.224256,,0,0,0,0,0,,,,,,,,,-66,17:33:26.084,
,,2126,13560,486,386,516,0.050781,0.476562,0.117188,-3.360000,-8.960000,-2.240000,0.560640,-0.046720,-0.224256,,0,0,0,0,0,,,,,,,,,-66,17:33:26.114,
,,2127,13580,484,386,515,-0.019531,0.550781,0.507812,-8.960000,10.080000,-10.080000,0.560640,-0.046720,-0.224256,,0,0,0,0,0,,,,,,,,,-66,17:33:26.144,
,,2128,13600,486,386,515,-0.019531,0.550781,0.507812,-8.960000,10.080000,-10.080000,0.560640,-0.046720,-0.224256,,0,0,0,0,0,,,,,,,,,-66,17:33:26.145,
,,2129,13620,485,382,513,-0.019531,0.550781,0.507812,-8.960000,10.080000,-10.080000,0.560640,-0.046720,-0.224256,,0,0,0,0,0,,,,,,,,,-66,17:33:26.173,
,,2130,13640,485,384,513,-0.019531,0.550781,0.507812,-8.960000,10.080000,-10.080000,0.560640,-0.046720,-0.224256,,0,0,0,0,0,,,,,,,,,-66,17:33:26.203,
,,2131,13660,483,381,513,-0.089844,0.414062,0.296875,-2.240000,0.000000,-2.240000,0.560640,-0.046720,-0.224256,,0,0,0,0,0,,,,,,,,,-66,17:33:26.204,
,,2132,13680,484,381,511,-0.089844,0.414062,0.296875,-2.240000,0.000000,-2.240000,0.560640,-0.046720,-0.224256,,0,0,0,0,0,,,,,,,,,-66,17:33:26.233,
,,2133,13700,481,381,512,-0.089844,0.414062,0.296875,-2.240000,0.000000,-2.240000,0.560640,-0.046720,-0.224256,,0,0,0,0,0,,,,,,,,,-66,17:33:26.263,
,,2134,13720,481,379,511,-0.089844,0.414062,0.296875,-2.240000,-6.720000,-1.120000,0.560640,-0.046720,-0.224256,,0,0,0,0,0,,,,,,,,,-66,17:33:26.264,
,,2135,13740,482,378,512,-0.066406,0.890625,0.265625,-2.240000,-6.720000,-1.120000,0.560640,-0.046720,-0.224256,,0,0,0,0,0,,,,,,,,,-66,17:33:26.293,
,,2136,13760,482,378,511,-0.066406,0.890625,0.265625,-2.240000,-6.720000,-1.120000,0.560640,-0.046720,-0.224256,,0,0,0,0,0,,,,,,,,,-66,17:33:26.323,
,,2137,13780,482,378,512,-0.066406,0.890625,0.265625,-2.240000,-6.720000,-1.120000,0.560640,-0.046720,-0.224256,,0,0,0,0,0,,,,,,,,,-66,17:33:26.324,
,,2138,13800,482,377,512,-0.046875,0.796875,0.207031,-7.840000,-5.600000,-4.480000,0.560640,-0.046720,-0.224256,,0,0,0,0,0,,,,,,,,,-66,17:33:26.353,
,,2139,13820,481,376,512,-0.046875,0.796875,0.207031,-7.840000,-5.600000,-4.480000,0.560640,-0.046720,-0.224256,,0,0,0,0,0,,,,,,,,,-66,17:33:26.383,
,,2140,13840,481,377,513,-0.046875,0.796875,0.207031,-7.840000,-5.600000,-4.480000,0.560640,-0.046720,-0.224256,,0,0,0,0,0,,,,,,,,,-66,17:33:26.384,
,,2141,13860,481,374,513,-0.046875,0.796875,0.207031,-7.840000,-5.600000,-4.480000,0.560640,-0.046720,-0.224256,,0,0,0,0,0,,,,,,,,,-66,17:33:26.413,
,,2142,13880,481,374,513,-0.128906,0.734375,0.285156,-4.480000,1.120000,-4.480000,0.560640,-0.046720,-0.224256,,0,0,0,0,0,,,,,,,,,-66,17:33:26.443,
,,2143,13900,481,375,515,-0.128906,0.734375,0.285156,-4.480000,1.120000,-4.480000,0.560640,-0.046720,-0.224256,,0,0,0,0,0,,,,,,,,,-66,17:33:26.444,
,,2144,13920,481,373,512,-0.128906,0.734375,0.285156,-4.480000,1.120000,-4.480000,0.560640,-0.046720,-0.224256,,0,0,0,0,0,,,,,,,,,-66,17:33:26.474,
,,2145,13940,481,374,513,-0.128906,0.734375,0.285156,-4.480000,1.120000,-4.480000,0.560640,-0.046720,-0.224256,,0,0,0,0,0,,,,,,,,,-66,17:33:26.502,
,,2146,13960,481,375,515,-0.156250,0.617188,0.324219,0.000000,1.120000,-6.720000,0.560640,-0.046720,-0.224256,,0,0,0,0,0,,,,,,,,,-66,17:33:26.503,
,,2147,13980,480,376,515,-0.156250,0.617188,0.324219,0.000000,1.120000,-6.720000,0.560640,-0.046720,-0.224256,,0,0,0,0,0,,,,,,,,,-66,17:33:26.533,
,,2148,14000,481,377,516,-0.156250,0.617188,0.324219,0.000000,1.120000,-6.720000,0.560640,-0.046720,-0.224256,,0,0,0,0,0,,,,,,,,,-66,17:33:26.563,
,,2149,14020,479,377,516,-0.156250,0.617188,0.324219,0.000000,1.120000,-6.720000,0.560640,-0.046720,-0.224256,,0,0,0,0,0,,,,,,,,,-66,17:33:26.563,
,,2150,14040,480,376,516,0.085938,0.695312,0.375000,0.000000,-11.200000,-6.720000,0.560640,-0.046720,-0.224256,,0,0,0,0,0,,,,,,,,,-66,17:33:26.593,
,,2151,14060,480,377,518,0.085938,0.695312,0.375000,0.000000,-11.200000,-6.720000,0.560640,-0.046720,-0.224256,,0,0,0,0,0,,,,,,,,,-66,17:33:26.623,
,,2152,14080,479,377,518,0.085938,0.695312,0.375000,0.000000,-11.200000,-6.720000,0.560640,-0.046720,-0.224256,,0,0,0,0,0,,,,,,,,,-66,17:33:26.623,
,,2153,14100,479,376,518,0.085938,0.695312,0.375000,0.000000,-11.200000,-6.720000,0.560640,-0.046720,-0.224256,,0,0,0,0,0,,,,,,,,,-66,17:33:26.653,
,,2154,14120,478,378,519,-0.015625,0.507812,0.210938,2.240000,-17.920000,-3.360000,0.560640,-0.046720,-0.224256,,0,0,0,0,0,,,,,,,,,-66,17:33:26.683,
,,2155,14140,478,378,521,-0.015625,0.507812,0.210938,2.240000,-17.920000,-3.360000,0.560640,-0.046720,-0.224256,,0,0,0,0,0,,,,,,,,,-66,17:33:26.684,
,,2156,14160,479,377,521,-0.015625,0.507812,0.210938,2.240000,-17.920000,-3.360000,0.560640,-0.046720,-0.224256,,0,0,0,0,0,,,,,,,,,-66,17:33:26.713,
,,2157,14180,478,379,520,0.085938,0.382812,0.316406,1.120000,-13.440001,-6.720000,0.560640,-0.046720,-0.224256,,0,0,0,0,0,,,,,,,,,-66,17:33:26.743,
,,2158,14200,478,379,522,0.085938,0.382812,0.316406,1.120000,-13.440001,-6.720000,0.560640,-0.046720,-0.224256,,0,0,0,0,0,,,,,,,,,-66,17:33:26.743,
,,2159,14220,477,380,520,0.085938,0.382812,0.316406,1.120000,-13.440001,-6.720000,0.560640,-0.046720,-0.224256,,0,0,0,0,0,,,,,,,,,-66,17:33:26.773,
,,2160,14240,478,379,521,0.085938,0.382812,0.316406,1.120000,-13.440001,-6.720000,0.560640,-0.046720,-0.224256,,0,0,0,0,0,,,,,,,,,-66,17:33:26.802,
,,2161,14260,477,380,520,-0.058594,0.496094,0.375000,1.120000,-12.320000,-6.720000,0.560640,-0.046720,-0.224256,,0,0,0,0,0,,,,,,,,,-66,17:33:26.803,
,,2162,14280,478,381,520,-0.058594,0.496094,0.375000,1.120000,-12.320000,-6.720000,0.560640,-0.046720,-0.224256,,0,0,0,0,0,,,,,,,,,-66,17:33:26.833,
,,2163,14300,477,384,519,-0.058594,0.496094,0.375000,1.120000,-12.320000,-6.720000,0.560640,-0.046720,-0.224256,,0,0,0,0,0,,,,,,,,,-66,17:33:26.862,
,,2164,14320,477,388,519,-0.058594,0.496094,0.375000,1.120000,-12.320000,-6.720000,0.560640,-0.046720,-0.224256,,0,0,0,0,0,,,,,,,,,-66,17:33:26.863,
,,2165,14340,478,392,521,0.054688,0.636719,0.320312,0.000000,-19.040001,1.120000,0.560640,-0.046720,-0.224256,,0,0,0,0,0,,,,,,,,,-66,17:33:26.893,
,,2166,14360,479,396,521,0.054688,0.636719,0.320312,0.000000,-19.040001,1.120000,0.560640,-0.046720,-0.224256,,0,0,0,0,0,,,,,,,,,-66,17:33:26.923,
,,2167,14380,478,398,521,0.054688,0.636719,0.320312,0.000000,-19.040001,1.120000,0.560640,-0.046720,-0.224256,,0,0,0,0,0,,,,,,,,,-66,17:33:26.924,
,,2168,14400,478,400,521,0.054688,0.636719,0.320312,0.000000,-19.040001,1.120000,0.560640,-0.046720,-0.224256,,0,0,0,0,0,,,,,,,,,-66,17:33:26.953,
,,2169,14420,478,400,521,0.066406,0.699219,0.234375,1.120000,-19.040001,0.000000,0.560640,-0.046720,-0.224256,,0,0,0,0,0,,,,,,,,,-66,17:33:26.983,
,,2170,14440,480,399,520,0.066406,0.699219,0.234375,1.120000,-19.040001,0.000000,0.560640,-0.046720,-0.224256,,0,0,0,0,0,,,,,,,,,-66,17:33:26.984,
,,2171,14460,477,398,520,0.066406,0.699219,0.234375,1.120000,-19.040001,0.000000,0.560640,-0.046720,-0.224256,,0,0,0,0,0,,,,,,,,,-66,17:33:27.013,
,,2172,14480,480,396,522,0.066406,0.699219,0.234375,1.120000,-19.040001,0.000000,0.560640,-0.046720,-0.224256,,0,0,0,0,0,,,,,,,,,-66,17:33:27.043,
,,2173,14500,478,397,521,0.058594,0.710938,0.238281,2.240000,-6.720000,-6.720000,0.560640,-0.046720,-0.224256,,0,0,0,0,0,,,,,,,,,-66,17:33:27.044,
,,2174,14520,477,396,521,0.058594,0.710938,0.238281,2.240000,-6.720000,-6.720000,0.560640,-0.046720,-0.224256,,0,0,0,0,0,,,,,,,,,-66,17:33:27.073,
,,2175,14540,478,395,522,0.058594,0.710938,0.238281,2.240000,-6.720000,-6.720000,0.560640,-0.046720,-0.224256,,0,0,0,0,0,,,,,,,,,-66,17:33:27.103,
,,2176,14560,477,393,522,0.058594,0.710938,0.238281,2.240000,-6.720000,-6.720000,0.560640,-0.046720,-0.224256,,0,0,0,0,0,,,,,,,,,-66,17:33:27.104,
,,2177,14580,478,393,521,-0.027344,0.714844,0.339844,1.120000,-1.120000,-8.960000,0.560640,-0.046720,-0.224256,,0,0,0,0,0,,,,,,,,,-66,17:33:27.133,
,,2178,14600,478,393,522,-0.027344,0.714844,0.339844,1.120000,-1.120000,-8.960000,0.560640,-0.046720,-0.224256,,0,0,0,0,0,,,,,,,,,-66,17:33:27.163,
,,2179,14620,477,391,520,-0.027344,0.714844,0.339844,1.120000,-1.120000,-8.960000,0.560640,-0.046720,-0.224256,,0,0,0,0,0,,,,,,,,,-66,17:33:27.163,
,,2180,14640,477,393,520,-0.042969,0.699219,0.250000,4.480000,-1.120000,-2.240000,0.560640,-0.046720,-0.224256,,0,0,0,0,0,,,,,,,,,-66,17:33:27.193,
,,2181,14660,478,396,521,-0.042969,0.699219,0.250000,4.480000,-1.120000,-2.240000,0.560640,-0.046720,-0.224256,,0,0,0,0,0,,,,,,,,,-66,17:33:27.223,
,,2182,14680,477,397,522,-0.042969,0.699219,0.250000,4.480000,-1.120000,-2.240000,0.560640,-0.046720,-0.224256,,0,0,0,0,0,,,,,,,,,-66,17:33:27.223,
,,2183,14700,479,400,519,-0.042969,0.699219,0.250000,4.480000,-1.120000,-2.240000,0.560640,-0.046720,-0.224256,,0,0,0,0,0,,,,,,,,,-66,17:33:27.253,
,,2184,14720,479,402,520,-0.136719,0.730469,0.257812,2.240000,13.440001,2.240000,0.560640,-0.046720,-0.224256,,0,0,0,0,0,,,,,,,,,-66,17:33:27.283,
,,2185,14740,479,401,519,-0.136719,0.730469,0.257812,2.240000,13.440001,2.240000,0.560640,-0.046720,-0.224256,,0,0,0,0,0,,,,,,,,,-66,17:33:27.284,
,,2186,14760,480,401,519,-0.136719,0.730469,0.257812,2.240000,13.440001,2.240000,0.560640,-0.046720,-0.224256,,0,0,0,0,0,,,,,,,,,-66,17:33:27.313,
,,2187,14780,479,399,518,-0.136719,0.730469,0.257812,2.240000,13.440001,2.240000,0.560640,-0.046720,-0.224256,,0,0,0,0,0,,,,,,,,,-66,17:33:27.343,
,,2188,14800,478,400,519,0.042969,0.667969,0.292969,-2.240000,4.480000,1.120000,0.560640,-0.046720,-0.224256,,0,0,0,0,0,,,,,,,,,-66,17:33:27.344,
,,2189,14820,479,399,517,0.042969,0.667969,0.292969,-2.240000,4.480000,1.120000,0.560640,-0.046720,-0.224256,,0,0,0,0,0,,,,,,,,,-66,17:33:27.373,
,,2190,14840,479,400,518,0.042969,0.667969,0.292969,-2.240000,4.480000,1.120000,0.588672,0.168192,-0.242944,,0,0,0,0,0,,,,,,,,,-66,17:33:27.403,
,,2191,14860,478,400,519,0.042969,0.667969,0.292969,-2.240000,4.480000,1.120000,0.588672,0.168192,-0.242944,,0,0,0,0,0,,,,,,,,,-66,17:33:27.403,
,,2192,14880,477,400,519,-0.101562,0.800781,0.191406,-2.240000,2.240000,-1.120000,0.588672,0.168192,-0.242944,,0,0,0,0,0,,,,,,,,,-66,17:33:27.433,
,,2193,14900,476,398,518,-0.101562,0.800781,0.191406,-2.240000,2.240000,-1.120000,0.588672,0.168192,-0.242944,,0,0,0,0,0,,,,,,,,,-66,17:33:27.463,
,,2194,14920,478,399,518,-0.101562,0.800781,0.191406,-2.240000,2.240000,-1.120000,0.588672,0.168192,-0.242944,,0,0,0,0,0,,,,,,,,,-66,17:33:27.463,
,,2195,14940,478,397,518,-0.101562,0.800781,0.191406,-2.240000,2.240000,-1.120000,0.588672,0.168192,-0.242944,,0,0,0,0,0,,,,,,,,,-66,17:33:27.493,
,,2196,14960,477,398,517,0.210938,0.820312,0.406250,-1.120000,4.480000,-2.240000,0.588672,0.168192,-0.242944,,0,0,0,0,0,,,,,,,,,-66,17:33:27.523,
,,2197,14980,478,397,517,0.210938,0.820312,0.406250,-1.120000,4.480000,-2.240000,0.588672,0.168192,-0.242944,,0,0,0,0,0,,,,,,,,,-66,17:33:27.523,
,,2198,15000,477,396,517,0.210938,0.820312,0.406250,-1.120000,4.480000,-2.240000,0.588672,0.168192,-0.242944,,0,0,0,0,0,,,,,,,,,-66,17:33:27.553,
,,2199,15020,479,395,516,0.066406,0.679688,0.269531,-2.240000,2.240000,-4.480000,0.588672,0.168192,-0.242944,,0,0,0,0,0,,,,,,,,,-66,17:33:27.583,
,,2200,15040,477,397,516,0.066406,0.679688,0.269531,-2.240000,2.240000,-4.480000,0.588672,0.168192,-0.242944,,0,0,0,0,0,,,,,,,,,-66,17:33:27.583,
,,2201,15060,481,397,515,0.066406,0.679688,0.269531,-2.240000,2.240000,-4.480000,0.588672,0.168192,-0.242944,,0,0,0,0,0,,,,,,,,,-66,17:33:27.613,
,,2202,15080,483,404,513,0.066406,0.679688,0.269531,-2.240000,2.240000,-4.480000,0.588672,0.168192,-0.242944,,0,0,0,0,0,,,,,,,,,-66,17:33:27.644,
,,2203,15100,485,413,515,0.187500,0.976562,0.285156,-5.600000,0.000000,-15.680000,0.588672,0.168192,-0.242944,,0,0,0,0,0,,,,,,,,,-66,17:33:27.644,
,,2204,15120,487,427,517,0.187500,0.976562,0.285156,-5.600000,0.000000,-15.680000,0.588672,0.168192,-0.242944,,0,0,0,0,0,,,,,,,,,-66,17:33:27.673,
,,2205,15140,489,445,520,0.187500,0.976562,0.285156,-5.600000,0.000000,-15.680000,0.588672,0.168192,-0.242944,,0,0,0,0,0,,,,,,,,,-66,17:33:27.703,
,,2206,15160,491,468,526,0.187500,0.976562,0.285156,-5.600000,0.000000,-15.680000,0.588672,0.168192,-0.242944,,0,0,0,0,0,,,,,,,,,-66,17:33:27.703,
,,2207,15180,493,491,528,-0.218750,1.007812,0.171875,-3.360000,2.240000,-14.560000,0.588672,0.168192,-0.242944,,0,0,0,0,0,,,,,,,,,-66,17:33:27.732,
,,2208,15200,492,508,530,-0.218750,1.007812,0.171875,-3.360000,2.240000,-14.560000,0.588672,0.168192,-0.242944,,0,0,0,0,0,,,,,,,,,-66,17:33:27.763,
,,2209,15220,495,522,530,-0.218750,1.007812,0.171875,-3.360000,2.240000,-14.560000,0.588672,0.168192,-0.242944,,0,0,0,0,0,,,,,,,,,-66,17:33:27.763,
,,2210,15240,495,530,530,-0.218750,1.007812,0.171875,-3.360000,2.240000,-14.560000,0.588672,0.168192,-0.242944,,0,0,0,0,0,,,,,,,,,-66,17:33:27.793,
,,2211,15260,496,534,530,0.492188,1.187500,-0.554688,29.120001,72.800003,30.240000,0.588672,0.168192,-0.242944,,0,0,0,0,0,,,,,,,,,-66,17:33:27.823,
,,2212,15280,496,538,529,0.492188,1.187500,-0.554688,29.120001,72.800003,30.240000,0.588672,0.168192,-0.242944,,0,0,0,0,0,,,,,,,,,-66,17:33:27.823,
,,2213,15300,495,541,529,0.492188,1.187500,-0.554688,29.120001,72.800003,30.240000,0.588672,0.168192,-0.242944,,0,0,0,0,0,,,,,,,,,-66,17:33:27.853,
,,2214,15320,495,541,532,0.492188,1.187500,-0.554688,29.120001,72.800003,30.240000,0.588672,0.168192,-0.242944,,0,0,0,0,0,,,,,,,,,-66,17:33:27.883,
,,2215,15340,494,541,530,-0.472656,0.695312,-0.359375,77.279999,237.440002,76.160004,0.588672,0.168192,-0.242944,,0,0,0,0,0,,,,,,,,,-66,17:33:27.883,
,,2216,15360,492,542,532,-0.472656,0.695312,-0.359375,77.279999,237.440002,76.160004,0.588672,0.168192,-0.242944,,0,0,0,0,0,,,,,,,,,-66,17:33:27.913,
,,2217,15380,492,542,533,-0.472656,0.695312,-0.359375,77.279999,237.440002,76.160004,0.588672,0.168192,-0.242944,,0,0,0,0,0,,,,,,,,,-66,17:33:27.944,
,,2218,15400,489,540,532,-0.765625,0.925781,0.492188,117.599998,184.800003,66.080002,0.588672,0.168192,-0.242944,,0,0,0,0,0,,,,,,,,,-66,17:33:27.944,
,,2219,15420,487,535,524,-0.765625,0.925781,0.492188,117.599998,184.800003,66.080002,0.588672,0.168192,-0.242944,,0,0,0,0,0,,,,,,,,,-66,17:33:27.973,
,,2220,15440,485,527,516,-0.765625,0.925781,0.492188,117.599998,184.800003,66.080002,0.588672,0.168192,-0.242944,,0,0,0,0,0,,,,,,,,,-66,17:33:28.003,
,,2221,15460,485,508,510,-0.765625,0.925781,0.492188,117.599998,184.800003,66.080002,0.588672,0.168192,-0.242944,,0,0,0,0,0,,,,,,,,,-66,17:33:28.003,
,,2222,15480,481,484,502,-0.019531,0.929688,0.453125,-8.960000,30.240000,-26.880001,0.588672,0.168192,-0.242944,,0,0,0,0,0,,,,,,,,,-66,17:33:28.033,
,,2223,15500,479,459,496,-0.019531,0.929688,0.453125,-8.960000,30.240000,-26.880001,0.588672,0.168192,-0.242944,,0,0,0,0,0,,,,,,,,,-66,17:33:28.062,
,,2224,15520,476,439,489,-0.019531,0.929688,0.453125,-8.960000,30.240000,-26.880001,0.588672,0.168192,-0.242944,,0,0,0,0,0,,,,,,,,,-66,17:33:28.063,
,,2225,15540,473,424,486,-0.019531,0.929688,0.453125,-8.960000,30.240000,-26.880001,0.588672,0.168192,-0.242944,,0,0,0,0,0,,,,,,,,,-66,17:33:28.093,
,,2226,15560,474,413,482,0.195312,0.957031,0.015625,-22.400000,-17.920000,-6.720000,0.588672,0.168192,-0.242944,,0,0,0,0,0,,,,,,,,,-66,17:33:28.123,
,,2227,15580,473,408,476,0.195312,0.957031,0.015625,-22.400000,-17.920000,-6.720000,0.588672,0.168192,-0.242944,,0,0,0,0,0,,,,,,,,,-66,17:33:28.123,
,,2228,15600,473,406,473,0.195312,0.957031,0.015625,-22.400000,-17.920000,-6.720000,0.588672,0.168192,-0.242944,,0,0,0,0,0,,,,,,,,,-66,17:33:28.153,
,,2229,15620,471,405,470,0.195312,0.957031,0.015625,-22.400000,-17.920000,-6.720000,0.588672,0.168192,-0.242944,,0,0,0,0,0,,,,,,,,,-66,17:33:28.183,
,,2230,15640,471,408,468,0.246094,0.941406,0.308594,-28.000000,0.000000,-16.799999,0.588672,0.168192,-0.242944,,0,0,0,0,0,,,,,,,,,-66,17:33:28.183,
,,2231,15660,474,408,467,0.246094,0.941406,0.308594,-28.000000,0.000000,-16.799999,0.588672,0.168192,-0.242944,,0,0,0,0,0,,,,,,,,,-66,17:33:28.213,
,,2232,15680,477,416,467,0.246094,0.941406,0.308594,-28.000000,0.000000,-16.799999,0.588672,0.168192,-0.242944,,0,0,0,0,0,,,,,,,,,-63,17:33:28.243,
,,2233,15700,482,428,473,0.246094,0.941406,0.308594,-28.000000,0.000000,-16.799999,0.588672,0.168192,-0.242944,,0,0,0,0,0,,,,,,,,,-63,17:33:28.244,
,,2234,15720,485,444,483,-0.035156,1.000000,0.152344,-25.760000,6.720000,-14.560000,0.588672,0.168192,-0.242944,,0,0,0,0,0,,,,,,,,,-63,17:33:28.273,
,,2235,15740,490,463,495,-0.035156,1.000000,0.152344,-25.760000,6.720000,-14.560000,0.588672,0.168192,-0.242944,,0,0,0,0,0,,,,,,,,,-63,17:33:28.303,
,,2236,15760,493,487,504,-0.035156,1.000000,0.152344,-25.760000,6.720000,-14.560000,0.588672,0.168192,-0.242944,,0,0,0,0,0,,,,,,,,,-63,17:33:28.303,
,,2237,15780,495,507,511,-0.074219,1.054688,-0.171875,-12.320000,1.120000,-10.080000,0.588672,0.168192,-0.242944,,0,0,0,0,0,,,,,,,,,-63,17:33:28.333,
,,2238,15800,497,522,515,-0.074219,1.054688,-0.171875,-12.320000,1.120000,-10.080000,0.588672,0.168192,-0.242944,,0,0,0,0,0,,,,,,,,,-63,17:33:28.363,
,,2239,15820,499,534,518,-0.074219,1.054688,-0.171875,-12.320000,1.120000,-10.080000,0.588672,0.168192,-0.242944,,0,0,0,0,0,,,,,,,,,-63,17:33:28.363,
,,2240,15840,498,539,520,-0.074219,1.054688,-0.171875,-12.320000,1.120000,-10.080000,0.588672,0.168192,-0.242944,,0,0,0,0,0,,,,,,,,,-63,17:33:28.393,
,,2241,15860,499,543,521,0.210938,1.011719,-0.750000,22.400000,81.760002,16.799999,0.588672,0.168192,-0.242944,,0,0,0,0,0,,,,,,,,,-63,17:33:28.423,
,,2242,15880,497,545,522,0.210938,1.011719,-0.750000,22.400000,81.760002,16.799999,0.588672,0.168192,-0.242944,,0,0,0,0,0,,,,,,,,,-63,17:33:28.423,
,,2243,15900,495,546,522,0.210938,1.011719,-0.750000,22.400000,81.760002,16.799999,0.588672,0.168192,-0.242944,,0,0,0,0,0,,,,,,,,,-63,17:33:28.453,
,,2244,15920,495,545,524,0.210938,1.011719,-0.750000,22.400000,81.760002,16.799999,0.588672,0.168192,-0.242944,,0,0,0,0,0,,,,,,,,,-63,17:33:28.483,
,,2245,15940,493,546,526,-0.312500,0.941406,-0.132812,89.599998,234.080002,45.920002,0.588672,0.168192,-0.242944,,0,0,0,0,0,,,,,,,,,-63,17:33:28.483,
,,2246,15960,493,547,526,-0.312500,0.941406,-0.132812,89.599998,234.080002,45.920002,0.588672,0.168192,-0.242944,,0,0,0,0,0,,,,,,,,,-63,17:33:28.513,
,,2247,15980,491,544,526,-0.312500,0.941406,-0.132812,89.599998,234.080002,45.920002,0.588672,0.168192,-0.242944,,0,0,0,0,0,,,,,,,,,-63,17:33:28.543,
,,2248,16000,489,539,519,-0.312500,0.941406,-0.132812,89.599998,234.080002,45.920002,0.588672,0.168192,-0.242944,,0,0,0,0,0,,,,,,,,,-63,17:33:28.544,
,,2249,16020,487,532,511,-0.617188,0.914062,0.902344,76.160004,201.600006,11.200000,0.588672,0.168192,-0.242944,,0,0,0,0,0,,,,,,,,,-63,17:33:28.573,
,,2250,16040,484,516,503,-0.617188,0.914062,0.902344,76.160004,201.600006,11.200000,0.588672,0.168192,-0.242944,,0,0,0,0,0,,,,,,,,,-63,17:33:28.603,
,,2251,16060,482,488,499,-0.617188,0.914062,0.902344,76.160004,201.600006,11.200000,0.588672,0.168192,-0.242944,,0,0,0,0,0,,,,,,,,,-63,17:33:28.603,
,,2252,16080,477,457,496,-0.617188,0.914062,0.902344,76.160004,201.600006,11.200000,0.588672,0.168192,-0.242944,,0,0,0,0,0,,,,,,,,,-63,17:33:28.633,
,,2253,16100,474,433,491,0.199219,0.957031,0.136719,-17.920000,30.240000,-22.400000,0.588672,0.168192,-0.242944,,0,0,0,0,0,,,,,,,,,-63,17:33:28.663,
,,2254,16120,471,414,488,0.199219,0.957031,0.136719,-17.920000,30.240000,-22.400000,0.588672,0.168192,-0.242944,,0,0,0,0,0,,,,,,,,,-63,17:33:28.664,
,,2255,16140,469,404,485,0.199219,0.957031,0.136719,-17.920000,30.240000,-22.400000,0.588672,0.168192,-0.242944,,0,0,0,0,0,,,,,,,,,-63,17:33:28.693,
